# Text export 
# created by voodoo camera tracker - www.digilab.uni-hannover.de
# Creation date: Mon Jun 24 19:11:41 2019
# The camera (one line per frame) 
#
# Description of the CAHV camera model:
# -------------
# (Cx, Cy, Cz)    : CameraPosition [mm]
# (Ax, Ay, Az)    : RotationAxis2  [unit vector]
# (Hx, Hy, Hz)    : RotationAxis0 [pel] (including FocalLength, PixelSizeX, and Principal Point offset) 
# (Vx, Vy, Vz)    : RotationAxis1 [pel] (including FocalLength, PixelSizeY, and Principal Point offset) 
# (K3, K5)        : Radialdistortion;	K3 [1/(mm)^2]	K5 [1/(mm)^4]
# (sx, sy)        : PixelSize	[mm/pel]
# (Width, Height) : ImageSize	[pel]
# -------------
# (ppx, ppy)      : Principal Point offset [pel]
# f               : Focal Length [mm]
# fov             : Horizontal Field of View [degree] = (2*atan(0.5*Width*sx/f)*180/PI;
# (H0x, H0y, H0z) : RotationAxis0 [unit vector]
# (V0x, V0y, V0z) : RotationAxis1 [unit vector]
# -------------
# (x, y)          : image coordinates [pel]
# (X, Y, Z)       : 3D coordinates [mm]
# -------------
# Projection of 3D coordinates in the camera image:
#  [ x' ] =  [ Hx Hy Hz ] [ 1 0 0 -Cx] [ X ]
#  [ y' ] =  [ Vx Vy Vz ] [ 0 1 0 -Cy] [ Y ]
#  [ z' ] =  [ Ax Ay Az ] [ 0 0 1 -Cz] [ Z ]
#                                      [ 1 ]
# or 
#  [ x' ] =  [f/sx 0    ppx] [ H0x H0y H0z ] [ 1 0 0 -Cx] [ X ]
#  [ y' ] =  [0    f/sy ppy] [ V0x V0y V0z ] [ 0 1 0 -Cy] [ Y ]
#  [ z' ] =  [0    0    1  ] [ Ax  Ay  Az  ] [ 0 0 1 -Cz] [ Z ]
#                                                         [ 1 ]
# then x = x'/z' and y = y'/z' , if the origin of the image coordinates is in the center of the image
# or x = x'/z' + 0.5*(Width-1) and y = y'/z' + 0.5*(Height-1) , if the origin of the image coordinates is in the upper left corner
# -------------
# Cx Cy Cz Ax Ay Az Hx Hy Hz Vx Vy Vz K3 K5 sx sy Width Height ppx ppy f fov H0x H0y H0z V0x V0y V0z
#
#timeindex 1
0.0482381285	0.0467345691	-0.3063542013	-0.0039045828	0.0017987073	0.9999907594	1952.2905749523	-0.3813622937	7.6236365276	0.4214095573	2082.4557885250	-3.7441175039	0.0000000000	0.0000000000	0.0106666667	0.0100000000	1280	720	0.0000000000	0.0000000000	20.8245919700	36.3001032238	0.9999923566	-0.0001953395	0.0039049404	0.0002023615	0.9999983632	-0.0017979308	
#timeindex 2
0.0483164018	0.0467834882	-0.3066981525	-0.0039055482	0.0017979012	0.9999907571	1952.2905669861	-0.3843478551	7.6255263815	0.4245911957	2082.4557909189	-3.7424261831	0.0000000000	0.0000000000	0.0106666667	0.0100000000	1280	720	0.0000000000	-0.0000000000	20.8245919700	36.3001032238	0.9999923525	-0.0001968687	0.0039059084	0.0002038893	0.9999983644	-0.0017971186	
#timeindex 3
0.0482526010	0.0467158776	-0.3062218540	-0.0039051753	0.0017987150	0.9999907571	1952.2905697327	-0.3848143681	7.6247996455	0.4250940295	2082.4557877735	-3.7441189684	0.0000000000	0.0000000000	0.0106666667	0.0100000000	1280	720	-0.0000000000	0.0000000000	20.8245919700	36.3001032238	0.9999923539	-0.0001971077	0.0039055361	0.0002041308	0.9999983629	-0.0017979315	
#timeindex 4
0.0482403809	0.0467050995	-0.3061661619	-0.0039047850	0.0017988768	0.9999907583	1952.2905729952	-0.3834063607	7.6240351768	0.4235920185	2082.4557874629	-3.7444619541	0.0000000000	0.0000000000	0.0106666667	0.0100000000	1280	720	0.0000000000	-0.0000000000	20.8245919700	36.3001032238	0.9999923556	-0.0001963865	0.0039051446	0.0002034095	0.9999983627	-0.0017980962	
#timeindex 5
0.0482509086	0.0467515428	-0.3061519581	-0.0039049215	0.0017985767	0.9999907583	1952.2905723123	-0.3816485739	7.6242982317	0.4217151277	2082.4557889542	-3.7438443617	0.0000000000	0.0000000000	0.0106666667	0.0100000000	1280	720	0.0000000000	-0.0000000000	20.8245919700	36.3001032238	0.9999923553	-0.0001954861	0.0039052793	0.0002025082	0.9999983635	-0.0017977996	
#timeindex 6
0.0482548657	0.0467565226	-0.3061071162	-0.0039048695	0.0017983672	0.9999907589	1952.2905724073	-0.3831357866	7.6241993233	0.4232995795	2082.4557894284	-3.7434017861	0.0000000000	0.0000000000	0.0106666667	0.0100000000	1280	720	-0.0000000000	-0.0000000000	20.8245919700	36.3001032238	0.9999923553	-0.0001962479	0.0039052286	0.0002032691	0.9999983637	-0.0017975871	
#timeindex 7
0.0482329194	0.0467549680	-0.3060650820	-0.0039048590	0.0017984228	0.9999907588	1952.2905721403	-0.3848387797	7.6241819168	0.4251165081	2082.4557888626	-3.7435106479	0.0000000000	0.0000000000	0.0106666667	0.0100000000	1280	720	0.0000000000	-0.0000000000	20.8245919700	36.3001032238	0.9999923552	-0.0001971202	0.0039052197	0.0002041416	0.9999983634	-0.0017976394	
#timeindex 8
0.0482203303	0.0467400646	-0.3060350783	-0.0039050035	0.0017988084	0.9999907576	1952.2905704122	-0.3878927578	7.6244696628	0.4283777413	2082.4557867739	-3.7443006588	0.0000000000	0.0000000000	0.0106666667	0.0100000000	1280	720	0.0000000000	-0.0000000000	20.8245919700	36.3001032238	0.9999923543	-0.0001986845	0.0039053671	0.0002057076	0.9999983624	-0.0017980187	
#timeindex 9
0.0482354123	0.0467758123	-0.3059680165	-0.0039054831	0.0017983123	0.9999907566	1952.2905674516	-0.3844946331	7.6253998161	0.4247508580	2082.4557893489	-3.7432816114	0.0000000000	0.0000000000	0.0106666667	0.0100000000	1280	720	0.0000000000	-0.0000000000	20.8245919700	36.3001032238	0.9999923528	-0.0001969439	0.0039058435	0.0002039660	0.9999983636	-0.0017975294	
#timeindex 10
0.0482373215	0.0467765515	-0.3059664533	-0.0039051898	0.0017982656	0.9999907578	1952.2905696481	-0.3846905691	7.6248275392	0.4249583775	2082.4557894826	-3.7431836727	0.0000000000	0.0000000000	0.0106666667	0.0100000000	1280	720	0.0000000000	-0.0000000000	20.8245919700	36.3001032238	0.9999923539	-0.0001970442	0.0039055504	0.0002040656	0.9999983637	-0.0017974824	
#timeindex 11
0.0578934492	0.0502994879	-0.3285876328	-0.0049191278	0.0022717213	0.9999853206	1952.2817539545	-0.6692685292	9.6051847974	0.7371509417	2082.4537011356	-4.7271977260	0.0000000000	0.0000000000	0.0106666667	0.0100000000	1280	720	-0.0000000000	0.0000000000	20.8245919700	36.3001032238	0.9999878384	-0.0003428093	0.0049199189	0.0003539810	0.9999973609	-0.0022700074	
#timeindex 12
0.0659051168	0.0542647931	-0.3530762495	-0.0064273781	0.0033692731	0.9999736681	1952.2644523980	-1.6324870434	12.5537726666	1.7863905550	2082.4466488890	-7.0050341241	0.0000000000	0.0000000000	0.0106666667	0.0100000000	1280	720	0.0000000000	-0.0000000000	20.8245919700	36.3001032238	0.9999789763	-0.0008361842	0.0064302296	0.0008578274	0.9999939744	-0.0033638278	
#timeindex 13
0.0877173664	0.0544528339	-0.3775539335	-0.0084704325	0.0038057968	0.9999568829	1952.2327126509	-3.2115783424	16.5491914896	3.4927175762	2082.4412980032	-7.8961039558	0.0000000000	0.0000000000	0.0106666667	0.0100000000	1280	720	-0.0000000000	-0.0000000000	20.8245919700	36.3001032238	0.9999627187	-0.0016450183	0.0084767428	0.0016772082	0.9999914049	-0.0037917208	
#timeindex 14
0.1029577578	0.0578991735	-0.4291684315	-0.0101565987	0.0035685268	0.9999420529	1952.1995514131	-4.4554911950	19.8447569748	4.8277861962	2082.4405144661	-7.3826386708	0.0000000000	0.0000000000	0.0106666667	0.0100000000	1280	720	-0.0000000000	0.0000000000	20.8245919700	36.3001032238	0.9999457330	-0.0022821691	0.0101647806	0.0023183101	0.9999910286	-0.0035451541	
#timeindex 15
0.1182519458	0.0609665946	-0.4653273998	-0.0119882336	0.0040301098	0.9999200170	1952.1580141383	-5.2034066507	23.4257702874	5.6505588189	2082.4348889256	-8.3253668805	0.0000000000	0.0000000000	0.0106666667	0.0100000000	1280	720	-0.0000000000	0.0000000000	20.8245919700	36.3001032238	0.9999244570	-0.0026652625	0.0119990290	0.0027134067	0.9999883272	-0.0039978535	
#timeindex 16
0.1322341450	0.0635127076	-0.5164343970	-0.0136783188	0.0050372404	0.9998937593	1952.1139678334	-5.7560731736	26.7334720939	6.2827995417	2082.4237256082	-10.4048362434	0.0000000000	0.0000000000	0.0106666667	0.0100000000	1280	720	-0.0000000000	0.0000000000	20.8245919700	36.3001032238	0.9999018958	-0.0029483465	0.0136932832	0.0030170097	0.9999829666	-0.0049964178	
#timeindex 17
0.1452868744	0.0631651856	-0.5522345859	-0.0150067374	0.0059267620	0.9998698272	1952.0754745111	-6.1308115541	29.3344384753	6.7241298407	2082.4123536872	-12.2426489033	0.0000000000	0.0000000000	0.0106666667	0.0100000000	1280	720	0.0000000000	0.0000000000	20.8245919700	36.3001032238	0.9998821790	-0.0031402931	0.0150255370	0.0032289371	0.9999775058	-0.0058789382	
#timeindex 18
0.1596601348	0.0657465634	-0.6131869007	-0.0153120741	0.0062468976	0.9998632490	1952.0655242728	-6.3942437690	29.9342097099	7.0190563128	2082.4073943047	-12.9028739802	0.0000000000	0.0000000000	0.0106666667	0.0100000000	1280	720	0.0000000000	0.0000000000	20.8245919700	36.3001032238	0.9998770823	-0.0032752270	0.0153327488	0.0033705613	0.9999751243	-0.0061959793	
#timeindex 19
0.1740417432	0.0691028444	-0.6658197654	-0.0148668497	0.0047791653	0.9998780607	1952.0745959518	-7.5494831326	29.0608235079	8.1999456360	2082.4198446197	-9.8315201614	0.0000000000	0.0000000000	0.0106666667	0.0100000000	1280	720	-0.0000000000	0.0000000000	20.8245919700	36.3001032238	0.9998817289	-0.0038669579	0.0148853873	0.0039376261	0.9999811029	-0.0047211106	
#timeindex 20
0.1917121729	0.0678606367	-0.7394007384	-0.0134343579	0.0037290608	0.9999028013	1952.1093470725	-8.7315651112	26.2604486191	9.4172194389	2082.4238900662	-7.6397135395	0.0000000000	0.0000000000	0.0106666667	0.0100000000	1280	720	0.0000000000	-0.0000000000	20.8245919700	36.3001032238	0.9998995290	-0.0044724379	0.0134509935	0.0045221628	0.9999830456	-0.0036686018	
#timeindex 21
0.2049123529	0.0683103493	-0.7986787854	-0.0105736672	0.0055315774	0.9999287971	1952.1824818289	-7.2466297059	20.6832859401	7.8512265832	2082.4129908352	-11.4368267089	0.0000000000	0.0000000000	0.0106666667	0.0100000000	1280	720	0.0000000000	-0.0000000000	20.8245919700	36.3001032238	0.9999369897	-0.0037118318	0.0105942876	0.0037701707	0.9999778117	-0.0054919812	
#timeindex 22
0.2159269555	0.0687565571	-0.8781606594	-0.0065978966	0.0074642086	0.9999503754	1952.2576784063	-4.4632566870	12.9147498002	4.8633958258	2082.3957425869	-15.5121178542	0.0000000000	0.0000000000	0.0106666667	0.0100000000	1280	720	0.0000000000	-0.0000000000	20.8245919700	36.3001032238	0.9999755065	-0.0022861467	0.0066151275	0.0023354099	0.9999695291	-0.0074489420	
#timeindex 23
0.2228479797	0.0688095737	-0.9470787462	-0.0043552696	0.0077743283	0.9999602949	1952.2864571404	-1.3641427025	8.5136772234	1.5256284387	2082.3957555673	-16.1832263864	0.0000000000	0.0000000000	0.0106666667	0.0100000000	1280	720	0.0000000000	0.0000000000	20.8245919700	36.3001032238	0.9999902474	-0.0006987342	0.0043608325	0.0007326090	0.9999695353	-0.0077712094	
#timeindex 24
0.2279820465	0.0726495668	-1.0353575157	-0.0030390444	0.0074093487	0.9999679324	1952.2922421876	4.1124335635	5.9028216094	-4.3398033321	2082.3974141207	-15.4428926647	0.0000000000	0.0000000000	0.0106666667	0.0100000000	1280	720	0.0000000000	-0.0000000000	20.8245919700	36.3001032238	0.9999932106	0.0021064498	0.0030235133	-0.0020839800	0.9999703318	-0.0074157000	
#timeindex 25
0.2209173903	0.0702488132	-1.1186421621	-0.0029884699	0.0075565856	0.9999669830	1952.2819364178	7.6567071063	5.7766678875	-8.1203225805	2082.3837240547	-15.7604986122	0.0000000000	0.0000000000	0.0106666667	0.0100000000	1280	720	0.0000000000	-0.0000000000	20.8245919700	36.3001032238	0.9999879318	0.0039218796	0.0029588955	-0.0038993910	0.9999637578	-0.0075682148	
#timeindex 26
0.2191509024	0.0732595661	-1.2214505245	-0.0025961131	0.0069958482	0.9999721588	1952.2743067108	9.8381551558	4.9996378747	-10.4564315114	2082.3817947886	-14.5955793448	0.0000000000	0.0000000000	0.0106666667	0.0100000000	1280	720	0.0000000000	-0.0000000000	20.8245919700	36.3001032238	0.9999840238	0.0050392498	0.0025608891	-0.0050211939	0.9999628313	-0.0070088189	
#timeindex 27
0.2098825685	0.0754722411	-1.3123584820	-0.0017474570	0.0047836354	0.9999870315	1952.2709185209	11.1236936113	3.3583414035	-11.8479832248	2082.4015670567	-9.9822831302	0.0000000000	0.0000000000	0.0106666667	0.0100000000	1280	720	0.0000000000	-0.0000000000	20.8245919700	36.3001032238	0.9999822883	0.0056977218	0.0017201926	-0.0056894191	0.9999723260	-0.0047935072	
#timeindex 28
0.2015259024	0.0766846856	-1.4238861468	-0.0004691576	0.0010175870	0.9999993722	1952.2818583224	9.5644546885	0.9061957579	-10.2010949878	2082.4331283647	-2.1238440477	0.0000000000	0.0000000000	0.0106666667	0.0100000000	1280	720	0.0000000000	-0.0000000000	20.8245919700	36.3001032238	0.9999878918	0.0048990564	0.0004641670	-0.0048985810	0.9999874818	-0.0010198731	
#timeindex 29
0.1921300197	0.0778059555	-1.5238714934	0.0016674020	-0.0020513531	0.9999965059	1952.2924252219	6.3662254224	-3.2422081729	-6.7835224150	2082.4437436782	4.2831533101	0.0000000000	0.0000000000	0.0106666667	0.0100000000	1280	720	0.0000000000	-0.0000000000	20.8245919700	36.3001032238	0.9999933043	0.0032608756	-0.0016607074	-0.0032574575	0.9999925793	0.0020567766	
#timeindex 30
0.1778677073	0.0802380759	-1.6448511321	0.0043145009	-0.0044306498	0.9999808770	1952.2844780913	3.3720188231	-8.4083536886	-3.5570131939	2082.4356506324	9.2420666295	0.0000000000	0.0000000000	0.0106666667	0.0100000000	1280	720	0.0000000000	0.0000000000	20.8245919700	36.3001032238	0.9999892337	0.0017271983	-0.0043068842	-0.0017080830	0.9999886930	0.0044380541	
#timeindex 31
0.1618792174	0.0820440041	-1.7664154093	0.0063807636	-0.0065628580	0.9999581065	1952.2651657495	1.5967106279	-12.4469849790	-1.6159530040	2082.4136531195	13.6774690891	0.0000000000	0.0000000000	0.0106666667	0.0100000000	1280	720	0.0000000000	-0.0000000000	20.8245919700	36.3001032238	0.9999793416	0.0008178590	-0.0063755314	-0.0007759830	0.9999781298	0.0065679410	
#timeindex 32
0.1430834898	0.0835316242	-1.9179525611	0.0075777282	-0.0069102080	0.9999474121	1952.2490344237	-1.1620027641	-14.8024207540	1.3485114274	2082.4091078047	14.3804176624	0.0000000000	0.0000000000	0.0106666667	0.0100000000	1280	720	0.0000000000	0.0000000000	20.8245919700	36.3001032238	0.9999710789	-0.0005951952	-0.0075820207	0.0006475572	0.9999759471	0.0069054979	
#timeindex 33
0.1235623228	0.0853029657	-2.0407300271	0.0082655041	-0.0071544801	0.9999402456	1952.2345239411	-3.9738217225	-16.1655990375	4.3618567751	2082.4015853365	14.8633359855	0.0000000000	0.0000000000	0.0106666667	0.0100000000	1280	720	0.0000000000	0.0000000000	20.8245919700	36.3001032238	0.9999636464	-0.0020354508	-0.0082802610	0.0020945701	0.9999723348	0.0071373960	
#timeindex 34
0.1040454356	0.0861738628	-2.2066721449	0.0088697854	-0.0066972692	0.9999382348	1952.2193713683	-5.9188685271	-17.3564791573	6.4370602245	2082.4029231737	13.8901755352	0.0000000000	0.0000000000	0.0106666667	0.0100000000	1280	720	-0.0000000000	0.0000000000	20.8245919700	36.3001032238	0.9999558851	-0.0030317328	-0.0088902475	0.0030910859	0.9999729772	0.0066700829	
#timeindex 35
0.0826804771	0.0871308947	-2.3588593501	0.0106457612	-0.0030721300	0.9999386130	1952.1852978014	-6.0480868893	-20.8023559209	6.5190647006	2082.4393770018	6.3285125308	0.0000000000	0.0000000000	0.0106666667	0.0100000000	1280	720	0.0000000000	0.0000000000	20.8245919700	36.3001032238	0.9999384321	-0.0030979203	-0.0106552770	0.0031304646	0.9999904824	0.0030389611	
#timeindex 36
0.0607554285	0.0857912184	-2.5292218695	0.0133304875	0.0008787209	0.9999107590	1952.1304539432	-2.4999634846	-26.0229761771	2.6419983481	2082.4566856778	-1.8652838806	0.0000000000	0.0000000000	0.0106666667	0.0100000000	1280	720	-0.0000000000	0.0000000000	20.8245919700	36.3001032238	0.9999103402	-0.0012805186	-0.0133293566	0.0012686915	0.9999987941	-0.0008957121	
#timeindex 37
0.0426282857	0.0854930391	-2.6842479528	0.0167070549	0.0034684998	0.9998544113	1952.0325155222	1.2748523084	-32.6218855141	-1.4803367533	2082.4462264677	-7.1992802926	0.0000000000	0.0000000000	0.0106666667	0.0100000000	1280	720	0.0000000000	0.0000000000	20.8245919700	36.3001032238	0.9998601747	0.0006529984	-0.0167094164	-0.0007108599	0.9999937715	-0.0034571051	
#timeindex 38
0.0241968120	0.0813046274	-2.8414485875	0.0178466529	0.0049668179	0.9998283991	1951.9945646975	-0.1949828526	-34.8415799294	0.0233574512	2082.4335000694	-10.3452600931	0.0000000000	0.0000000000	0.0106666667	0.0100000000	1280	720	0.0000000000	0.0000000000	20.8245919700	36.3001032238	0.9998407357	-0.0000998731	-0.0178463770	0.0000112163	0.9999876603	-0.0049678093	
#timeindex 39
0.0137130752	0.0739680520	-2.9908260723	0.0134069623	0.0036946553	0.9999032968	1952.1283182484	-2.6814376637	-26.1647339650	2.7568092662	2082.4430194511	-7.7316172476	0.0000000000	0.0000000000	0.0106666667	0.0100000000	1280	720	0.0000000000	-0.0000000000	20.8245919700	36.3001032238	0.9999092463	-0.0013734724	-0.0134019671	0.0013238239	0.9999922315	-0.0037127341	
#timeindex 40
-0.0049083596	0.0722472307	-3.1498656343	0.0052949940	0.0013258677	0.9999851024	1952.2666431798	-6.7104693850	-10.3284968451	7.1431202086	2082.4450650843	-2.7989110254	0.0000000000	0.0000000000	0.0106666667	0.0100000000	1280	720	0.0000000000	-0.0000000000	20.8245919700	36.3001032238	0.9999800984	-0.0034372025	-0.0052904102	0.0034301369	0.9999932138	-0.0013440412	
#timeindex 41
-0.0180780579	0.0706158152	-3.2674316068	-0.0023101932	0.0007395282	0.9999970580	1952.2497376986	-14.0456856378	4.5204744685	14.9855864900	2082.4047332798	-1.5053818384	0.0000000000	0.0000000000	0.0106666667	0.0100000000	1280	720	0.0000000000	-0.0000000000	20.8245919700	36.3001032238	0.9999714392	-0.0071944097	0.0023154545	0.0071961009	0.9999738464	-0.0007228866	
#timeindex 42
-0.0295453250	0.0656238455	-3.4316677861	-0.0081629867	0.0023068143	0.9999640215	1952.0995430425	-23.4192716690	15.9895617977	25.0190016305	2082.3038207763	-4.5994239891	0.0000000000	0.0000000000	0.0106666667	0.0100000000	1280	720	0.0000000000	0.0000000000	20.8245919700	36.3001032238	0.9998945072	-0.0119957003	0.0081900921	0.0120141618	0.9999253881	-0.0022086502	
#timeindex 43
-0.0389314123	0.0603561581	-3.5646160598	-0.0117597206	0.0045611350	0.9999204493	1951.9067686611	-31.9849446473	23.1016036190	34.2269544085	2082.1580390500	-9.0952281122	0.0000000000	0.0000000000	0.0106666667	0.0100000000	1280	720	0.0000000000	0.0000000000	20.8245919700	36.3001032238	0.9997957653	-0.0163831658	0.0118329860	0.0164358344	0.9998553835	-0.0043675421	
#timeindex 44
-0.0476745756	0.0512766692	-3.7067230364	-0.0109425618	0.0050931413	0.9999271575	1951.8497246484	-36.2662458923	21.5445147934	38.7982223198	2082.0728524523	-10.1804807946	0.0000000000	0.0000000000	0.0106666667	0.0100000000	1280	720	0.0000000000	-0.0000000000	20.8245919700	36.3001032238	0.9997665465	-0.0185761122	0.0110354219	0.0186309640	0.9998144768	-0.0048886820	
#timeindex 45
-0.0490008198	0.0430470102	-3.8362014403	-0.0048330737	0.0026753809	0.9999847418	1951.9189713448	-37.6586482368	9.5346649770	40.1958213251	2082.0642882396	-5.3761276511	0.0000000000	0.0000000000	0.0106666667	0.0100000000	1280	720	0.0000000000	-0.0000000000	20.8245919700	36.3001032238	0.9998020157	-0.0192893214	0.0048837976	0.0193020931	0.9998103642	-0.0025816245	
#timeindex 46
-0.0427921438	0.0374168190	-3.9906270514	0.0020401349	-0.0005136726	0.9999977870	1951.8967589545	-39.7463989564	-4.0025581476	42.3982581355	2082.0273121676	0.9829844384	0.0000000000	0.0000000000	0.0106666667	0.0100000000	1280	720	0.0000000000	-0.0000000000	20.8245919700	36.3001032238	0.9997906382	-0.0203586985	-0.0020501700	0.0203597065	0.9997926083	0.0004720306	
#timeindex 47
-0.0331961355	0.0349027014	-4.1089455983	0.0048816261	-0.0040467830	0.9999798964	1951.8333816964	-41.8229800693	-9.6975642523	44.6521420972	2081.9642482946	8.2074473650	0.0000000000	0.0000000000	0.0106666667	0.0100000000	1280	720	0.0000000000	0.0000000000	20.8245919700	36.3001032238	0.9997581754	-0.0214223543	-0.0049672371	0.0214420250	0.9997623249	0.0039412284	
#timeindex 48
-0.0122628630	0.0320045037	-4.2685473867	0.0034782151	-0.0071952201	0.9999680649	1951.7530963400	-45.8903538666	-7.1190356098	49.0027854740	2081.8298970246	14.8092549985	0.0000000000	0.0000000000	0.0106666667	0.0100000000	1280	720	0.0000000000	-0.0000000000	20.8245919700	36.3001032238	0.9997170520	-0.0235057238	-0.0036464762	0.0235312104	0.9996978092	0.0071114263	
#timeindex 49
0.0044301732	0.0344738890	-4.3906060250	0.0016409645	-0.0084313906	0.9999631088	1951.6648863036	-49.8778276133	-3.6232859546	53.2336393575	2081.7054215075	17.4649612196	0.0000000000	0.0000000000	0.0106666667	0.0100000000	1280	720	0.0000000000	0.0000000000	20.8245919700	36.3001032238	0.9996718696	-0.0255481674	-0.0018559011	0.0255628727	0.9996380359	0.0083867003	
#timeindex 50
0.0233102041	0.0374877486	-4.5367431106	-0.0006795515	-0.0085142783	0.9999635220	1951.6183887666	-51.7845063951	0.8853498298	55.2267512360	2081.6509858388	17.7619331040	0.0000000000	0.0000000000	0.0106666667	0.0100000000	1280	720	0.0000000000	0.0000000000	20.8245919700	36.3001032238	0.9996480528	-0.0265247967	0.0004534894	0.0265199680	0.9996118958	0.0085293067	
#timeindex 51
0.0409897565	0.0431058290	-4.6421961803	-0.0018355842	-0.0115064779	0.9999321135	1951.6720128542	-49.6390922424	3.0114916588	52.9078088063	2081.6480517485	24.0511867075	0.0000000000	0.0000000000	0.0106666667	0.0100000000	1280	720	0.0000000000	0.0000000000	20.8245919700	36.3001032238	0.9996755199	-0.0254258836	0.0015425310	0.0254064084	0.9996104868	0.0115494156	
#timeindex 52
0.0624111345	0.0448559857	-4.7943222502	0.0004922697	-0.0166332111	0.9998615374	1951.7760372872	-45.4324492405	-1.7167254565	48.4850274157	2081.6070766822	34.6047335816	0.0000000000	0.0000000000	0.0106666667	0.0100000000	1280	720	0.0000000000	0.0000000000	20.8245919700	36.3001032238	0.9997288027	-0.0232711783	-0.0008793324	0.0232825822	0.9995908106	0.0166172445	
#timeindex 53
0.0930255749	0.0456156002	-4.9240806311	0.0041006449	-0.0210192103	0.9997706625	1951.7410466707	-46.0772077318	-8.9739616253	49.3389504903	2081.4189207600	43.5574497655	0.0000000000	0.0000000000	0.0106666667	0.0100000000	1280	720	0.0000000000	0.0000000000	20.8245919700	36.3001032238	0.9997108800	-0.0236014332	-0.0045965970	0.0236926373	0.9995004578	0.0209163521	
#timeindex 54
0.1269737280	0.0485031398	-5.0791011981	0.0047865019	-0.0237646255	0.9997061228	1951.5967859785	-51.5270472862	-10.5689486346	55.2139432197	2081.1454341211	49.2078212706	0.0000000000	0.0000000000	0.0106666667	0.0100000000	1280	720	0.0000000000	0.0000000000	20.8245919700	36.3001032238	0.9996369876	-0.0263929223	-0.0054135732	0.0265138176	0.9993691291	0.0236296689	
#timeindex 55
0.1547601534	0.0556925455	-5.1898822259	0.0050025878	-0.0255038863	0.9996622059	1951.5663486189	-52.5564003878	-11.1070263900	56.3433807831	2081.0268638875	52.8102488511	0.0000000000	0.0000000000	0.0106666667	0.0100000000	1280	720	0.0000000000	0.0000000000	20.8245919700	36.3001032238	0.9996213971	-0.0269201723	-0.0056891846	0.0270561752	0.9993121915	0.0253595600	
#timeindex 56
0.1877331283	0.0613367199	-5.3366600151	0.0056097704	-0.0247753934	0.9996773031	1951.4777289385	-55.4931792267	-12.3261849433	59.4993683543	2080.9782829021	51.2398128267	0.0000000000	0.0000000000	0.0106666667	0.0100000000	1280	720	-0.0000000000	-0.0000000000	20.8245919700	36.3001032238	0.9995760048	-0.0284244342	-0.0063136558	0.0285716851	0.9992888629	0.0246054342	
#timeindex 57
0.2218317545	0.0721010699	-5.4452666898	0.0056860561	-0.0241281393	0.9996927036	1951.3208538695	-60.7109946640	-12.5640240257	65.0618505781	2080.8455037604	49.8523042877	0.0000000000	0.0000000000	0.0106666667	0.0100000000	1280	720	-0.0000000000	0.0000000000	20.8245919700	36.3001032238	0.9994956510	-0.0310970771	-0.0064354805	0.0312427973	0.9992251021	0.0239391506	
#timeindex 58
0.2553943870	0.0780001157	-5.5975474963	0.0053801091	-0.0244455210	0.9996866864	1951.3710041080	-59.2044366568	-11.9496161269	63.4432018057	2080.8788301251	50.5426715273	0.0000000000	0.0000000000	0.0106666667	0.0100000000	1280	720	-0.0000000000	0.0000000000	20.8245919700	36.3001032238	0.9995213387	-0.0303253957	-0.0061207716	0.0304655198	0.9992411055	0.0242706660	
#timeindex 59
0.2884449619	0.0836349273	-5.7167704411	0.0055292006	-0.0237589175	0.9997024266	1951.4977635566	-54.8352464293	-12.0966483604	58.7800876692	2081.0495302006	49.1330978948	0.0000000000	0.0000000000	0.0106666667	0.0100000000	1280	720	-0.0000000000	0.0000000000	20.8245919700	36.3001032238	0.9995862668	-0.0280874312	-0.0061960837	0.0282262854	0.9993230759	0.0235937866	
#timeindex 60
0.3176434832	0.0866965771	-5.8516568408	0.0047675227	-0.0228767747	0.9997269247	1951.6249061079	-50.4730435914	-10.4619333198	54.0785023354	2081.2179658689	47.3666685872	0.0000000000	0.0000000000	0.0106666667	0.0100000000	1280	720	0.0000000000	0.0000000000	20.8245919700	36.3001032238	0.9996513911	-0.0258530459	-0.0053587583	0.0259685772	0.9994039590	0.0227455446	
#timeindex 61
0.3529836891	0.0849516818	-5.9810664491	0.0024346822	-0.0211491775	0.9997733666	1951.6421708545	-50.5538739447	-5.8221207644	54.0432531365	2081.2949745301	43.8960470830	0.0000000000	0.0000000000	0.0106666667	0.0100000000	1280	720	0.0000000000	0.0000000000	20.8245919700	36.3001032238	0.9996602344	-0.0258944484	-0.0029821771	0.0259516504	0.9994409386	0.0210789470	
#timeindex 62
0.3794436726	0.0809192785	-6.1328984810	0.0014579728	-0.0172086975	0.9998508564	1951.6767805104	-49.4048234213	-3.6962356882	52.7584665707	2081.4838287240	35.7480367136	0.0000000000	0.0000000000	0.0106666667	0.0100000000	1280	720	0.0000000000	0.0000000000	20.8245919700	36.3001032238	0.9996779619	-0.0253058876	-0.0018932671	0.0253346940	0.9995316267	0.0171662603	
#timeindex 63
0.4087413238	0.0721641646	-6.2622714571	0.0006199472	-0.0126062845	0.9999203455	1951.8131297026	-43.8081603889	-1.7624195136	46.7486809939	2081.7693349654	26.2164831036	0.0000000000	0.0000000000	0.0106666667	0.0100000000	1280	720	0.0000000000	0.0000000000	20.8245919700	36.3001032238	0.9997478020	-0.0224391933	-0.0009027376	0.0224487861	0.9996687272	0.0125891941	
#timeindex 64
0.4403061030	0.0710284242	-6.4057297376	-0.0013397743	-0.0093217065	0.9999556544	1951.9298085004	-38.2318526889	2.2588595482	40.7563742391	2081.9693604212	19.4629748394	0.0000000000	0.0000000000	0.0106666667	0.0100000000	1280	720	-0.0000000000	0.0000000000	20.8245919700	36.3001032238	0.9998075667	-0.0195829253	0.0011570216	0.0195712715	0.9997647797	0.0093461494	
#timeindex 65
0.4588710816	0.0674624038	-6.5318370149	-0.0018280933	-0.0081101364	0.9999654413	1952.0972489373	-28.3184684949	3.3390645804	30.1764368810	2082.1716171640	16.9424466011	0.0000000000	0.0000000000	0.0106666667	0.0100000000	1280	720	-0.0000000000	0.0000000000	20.8245919700	36.3001032238	0.9998933321	-0.0145051420	0.0017103187	0.0144907698	0.9998619037	0.0081357880	
#timeindex 66
0.4771532274	0.0643932640	-6.6730913964	-0.0014682412	-0.0064616754	0.9999780453	1952.2091002555	-19.2058100934	2.7422722823	20.4668466792	2082.3149507757	13.4855895833	0.0000000000	0.0000000000	0.0106666667	0.0100000000	1280	720	-0.0000000000	0.0000000000	20.8245919700	36.3001032238	0.9999506241	-0.0098375024	0.0014046328	0.0098282102	0.9999307327	0.0064758002	
#timeindex 67
0.4959079428	0.0612124738	-6.8078594187	0.0001262512	-0.0044750713	0.9999899788	1952.2230865281	-17.9351049616	-0.3267346309	19.1321465515	2082.3504685456	9.3163447434	0.0000000000	0.0000000000	0.0106666667	0.0100000000	1280	720	-0.0000000000	0.0000000000	20.8245919700	36.3001032238	0.9999577880	-0.0091866283	-0.0001673584	0.0091872852	0.9999477884	0.0044737226	
#timeindex 68
0.5137301807	0.0589282051	-6.9551535832	0.0019932558	-0.0036153553	0.9999914780	1952.2224094376	-17.5720697920	-3.9548415462	18.7586327476	2082.3612327236	7.4911488099	0.0000000000	0.0000000000	0.0106666667	0.0100000000	1280	720	0.0000000000	-0.0000000000	20.8245919700	36.3001032238	0.9999574412	-0.0090006763	-0.0020257288	0.0090079233	0.9999529574	0.0035972608	
#timeindex 69
0.5258358864	0.0577391552	-7.0751451169	0.0011164774	-0.0027114564	0.9999957007	1952.2320235046	-16.7907529709	-2.2251599032	17.9164951542	2082.3745223281	5.6262885921	0.0000000000	0.0000000000	0.0106666667	0.0100000000	1280	720	0.0000000000	-0.0000000000	20.8245919700	36.3001032238	0.9999623657	-0.0086004742	-0.0011397601	0.0086035276	0.9999593391	0.0027017521	
#timeindex 70
0.5303083652	0.0486020314	-7.2427377939	-0.0016141912	-0.0017289039	0.9999972026	1952.2304938907	-16.8257231338	3.1221920569	17.9416299693	2082.3787441183	3.6292040045	0.0000000000	0.0000000000	0.0106666667	0.0100000000	1280	720	0.0000000000	-0.0000000000	20.8245919700	36.3001032238	0.9999615822	-0.0086183864	0.0015992333	0.0086155974	0.9999613664	0.0017427492	
#timeindex 71
0.5250043465	0.0476549447	-7.3795271826	-0.0044434150	-0.0035352337	0.9999838790	1952.2507501154	-11.7996966246	8.6330847519	12.5535855243	2082.4081474059	7.4176998596	0.0000000000	0.0000000000	0.0106666667	0.0100000000	1280	720	0.0000000000	-0.0000000000	20.8245919700	36.3001032238	0.9999719577	-0.0060439806	0.0044219948	0.0060282504	0.9999754859	0.0035619905	
#timeindex 72
0.5144696516	0.0477205359	-7.5303900767	-0.0064936885	-0.0072324570	0.9999527607	1952.2476159751	-8.1710742159	12.6187869658	8.6180516118	2082.3864912936	15.1174477793	0.0000000000	0.0000000000	0.0106666667	0.0100000000	1280	720	0.0000000000	-0.0000000000	20.8245919700	36.3001032238	0.9999703524	-0.0041853461	0.0064635309	0.0041384012	0.9999650866	0.0072594209	
#timeindex 73
0.5053377512	0.0471399641	-7.6824043661	-0.0071333051	-0.0102242826	0.9999222870	1952.2430221179	-7.2127413733	13.8532766054	7.5419104360	2082.3361355466	21.3458508191	0.0000000000	0.0000000000	0.0106666667	0.0100000000	1280	720	0.0000000000	-0.0000000000	20.8245919700	36.3001032238	0.9999679993	-0.0036944737	0.0070958549	0.0036216366	0.9999409057	0.0102503093	
#timeindex 74
0.4908014714	0.0518493857	-7.8542877494	-0.0060663170	-0.0122480982	0.9999065876	1952.2607474888	-6.0153562617	11.7704554877	6.2620039019	2082.2931044382	25.5445038993	0.0000000000	0.0000000000	0.0106666667	0.0100000000	1280	720	0.0000000000	-0.0000000000	20.8245919700	36.3001032238	0.9999770785	-0.0030811552	0.0060290029	0.0030070236	0.9999202421	0.0122665087	
#timeindex 75
0.4758870530	0.0574918828	-7.9997875380	-0.0040429820	-0.0146868431	0.9998839687	1952.2744531699	-7.7905900789	7.7794938907	8.1871252485	2082.2180060343	30.6178622716	0.0000000000	0.0000000000	0.0106666667	0.0100000000	1280	720	-0.0000000000	-0.0000000000	20.8245919700	36.3001032238	0.9999840988	-0.0039904565	0.0039847728	0.0039314697	0.9998841797	0.0147027429	
#timeindex 76
0.4592757343	0.0589288794	-8.1816459671	-0.0000970655	-0.0178320722	0.9998409912	1952.2744105018	-11.0172759889	-0.0069633795	11.7500248716	2082.0949131875	37.1351121914	0.0000000000	0.0000000000	0.0106666667	0.0100000000	1280	720	-0.0000000000	0.0000000000	20.8245919700	36.3001032238	0.9999840769	-0.0056432131	-0.0000035667	0.0056423794	0.9998250704	0.0178323360	
#timeindex 77
0.4361471914	0.0669807664	-8.3400712175	0.0036522600	-0.0212910597	0.9997666487	1952.2607160670	-10.9816833839	-7.3656941707	11.8783405093	2081.9541918420	44.2939641642	0.0000000000	0.0000000000	0.0106666667	0.0100000000	1280	720	-0.0000000000	0.0000000000	20.8245919700	36.3001032238	0.9999770624	-0.0056249821	-0.0037728184	0.0057039968	0.9997574958	0.0212700274	
#timeindex 78
0.4103510573	0.0691799611	-8.5284015564	0.0055672515	-0.0238752556	0.9996994438	1952.2408487792	-11.3256490032	-11.1423674078	12.3608233373	2081.8305312044	49.6503429475	0.0000000000	0.0000000000	0.0106666667	0.0100000000	1280	720	-0.0000000000	0.0000000000	20.8245919700	36.3001032238	0.9999668861	-0.0058011664	-0.0057072868	0.0059356857	0.9996981138	0.0238421684	
#timeindex 79
0.3757851533	0.0770708479	-8.6854250291	0.0075503985	-0.0250398358	0.9996579406	1952.2319629030	-7.9849145741	-14.9451824323	8.9135020510	2081.7888273082	52.0781637470	0.0000000000	0.0000000000	0.0106666667	0.0100000000	1280	720	-0.0000000000	0.0000000000	20.8245919700	36.3001032238	0.9999623346	-0.0040899924	-0.0076551454	0.0042802769	0.9996780875	0.0250080116	
#timeindex 80
0.3419040676	0.0826901538	-8.8823582979	0.0091224631	-0.0239962679	0.9996704256	1952.2233202599	-1.4883692818	-17.8506837211	2.0439771118	2081.8589435892	49.9546626300	0.0000000000	0.0000000000	0.0106666667	0.0100000000	1280	720	0.0000000000	0.0000000000	20.8245919700	36.3001032238	0.9999579078	-0.0007623649	-0.0091433865	0.0009815208	0.9997117574	0.0239883032	
#timeindex 81
0.3059503091	0.0919763173	-9.0389275440	0.0105171023	-0.0211442435	0.9997211169	1952.1966791473	2.2484509419	-20.4896245273	-1.9355586952	2081.9922516487	44.0547937310	0.0000000000	0.0000000000	0.0106666667	0.0100000000	1280	720	-0.0000000000	0.0000000000	20.8245919700	36.3001032238	0.9999442618	0.0011516901	-0.0104950913	-0.0009294582	0.9997757721	0.0211551774	
#timeindex 82
0.2696183442	0.1001820868	-9.2515875024	0.0109213681	-0.0195960820	0.9997483270	1952.1816712324	5.7888839675	-21.2123936819	-5.7298637397	2082.0501633409	40.8728902457	0.0000000000	0.0000000000	0.0106666667	0.0100000000	1280	720	-0.0000000000	0.0000000000	20.8245919700	36.3001032238	0.9999365745	0.0029651527	-0.0108653045	-0.0027514891	0.9998035814	0.0196272226	
#timeindex 83
0.2260911403	0.1105022259	-9.4088729949	0.0120082095	-0.0172735843	0.9997786886	1952.1220255849	13.3169505695	-23.2165969254	-13.7738341676	2082.1000410696	36.1387276118	0.0000000000	0.0000000000	0.0106666667	0.0100000000	1280	720	-0.0000000000	0.0000000000	20.8245919700	36.3001032238	0.9999060231	0.0068211407	-0.0118918873	-0.0066142156	0.9998275328	0.0173538707	
#timeindex 84
0.1781377969	0.1191924572	-9.6051134577	0.0139637329	-0.0136502882	0.9998093237	1951.9562486133	25.2794669810	-26.9166559503	-26.5677084525	2082.0905747783	28.7976118830	0.0000000000	0.0000000000	0.0106666667	0.0100000000	1280	720	0.0000000000	0.0000000000	20.8245919700	36.3001032238	0.9998211097	0.0129485201	-0.0137871127	-0.0127578531	0.9998229871	0.0138286560	
#timeindex 85
0.1303670586	0.1277495093	-9.7743894352	0.0166264210	-0.0100224429	0.9998115386	1951.7285431897	34.9521449481	-32.1060053709	-36.9320290263	2082.0208274215	21.4850314932	0.0000000000	0.0000000000	0.0106666667	0.0100000000	1280	720	0.0000000000	0.0000000000	20.8245919700	36.3001032238	0.9997044756	0.0179030101	-0.0164451749	-0.0177348152	0.9997894943	0.0103171440	
#timeindex 86
0.0885007701	0.1349926950	-9.9774574375	0.0183677915	-0.0067209389	0.9998087083	1951.5713423609	39.9978264978	-35.5840395370	-42.4010848982	2081.9750647567	14.7744676360	0.0000000000	0.0000000000	0.0106666667	0.0100000000	1280	720	0.0000000000	0.0000000000	20.8245919700	36.3001032238	0.9996239549	0.0204874834	-0.0182266759	-0.0203610640	0.9997675190	0.0070947213	
#timeindex 87
0.0455018056	0.1427473173	-10.1539957572	0.0172487359	-0.0026494324	0.9998477192	1951.5420131688	43.0667565181	-33.5526398196	-45.8360563494	2081.9451428763	6.3075474724	0.0000000000	0.0000000000	0.0106666667	0.0100000000	1280	720	0.0000000000	0.0000000000	20.8245919700	36.3001032238	0.9996089321	0.0220594352	-0.0171861627	-0.0220105424	0.9997531504	0.0030288937	
#timeindex 88
0.0034481418	0.1488941671	-10.3452600270	0.0129271522	0.0026091276	0.9999130368	1951.6987692199	41.5514908879	-25.3405238594	-44.3882603713	2081.9803990296	-4.8587612588	0.0000000000	0.0000000000	0.0106666667	0.0100000000	1280	720	-0.0000000000	0.0000000000	20.8245919700	36.3001032238	0.9996892249	0.0212832935	-0.0129797943	-0.0213153086	0.9997700805	-0.0023331844	
#timeindex 89
-0.0328039544	0.1538922768	-10.5219140758	0.0084684280	0.0082114452	0.9999304265	1951.8175685786	40.2573529010	-16.8605706964	-43.0858684904	2081.9461934795	-16.7320816309	0.0000000000	0.0000000000	0.0106666667	0.0100000000	1280	720	0.0000000000	0.0000000000	20.8245919700	36.3001032238	0.9997500757	0.0206204167	-0.0086362358	-0.0206898981	0.9997536549	-0.0080347705	
#timeindex 90
-0.0665746741	0.1591291412	-10.7297352661	0.0050155451	0.0126591997	0.9999072902	1951.8561236049	40.5985697607	-10.3045231917	-43.4402697510	2081.8419735444	-26.1389999016	0.0000000000	0.0000000000	0.0106666667	0.0100000000	1280	720	0.0000000000	0.0000000000	20.8245919700	36.3001032238	0.9997698242	0.0207951931	-0.0052781305	-0.0208600821	0.9997036084	-0.0125519866	
#timeindex 91
-0.0973228960	0.1573099777	-10.9239302087	0.0047449885	0.0139758383	0.9998910746	1951.8133995846	42.7083352944	-9.8592909125	-45.6975734687	2081.7574183690	-28.8806164716	0.0000000000	0.0000000000	0.0106666667	0.0100000000	1280	720	0.0000000000	0.0000000000	20.8245919700	36.3001032238	0.9997479403	0.0218758465	-0.0050500759	-0.0219440427	0.9996630049	-0.0138685149	
#timeindex 92
-0.1223652414	0.1525666180	-11.1309509794	0.0086982949	0.0119369433	0.9998909186	1951.7340289650	43.8714253607	-17.5023580076	-47.0139354219	2081.7849298300	-24.4438739178	0.0000000000	0.0000000000	0.0106666667	0.0100000000	1280	720	0.0000000000	0.0000000000	20.8245919700	36.3001032238	0.9997072855	0.0224715985	-0.0089649689	-0.0225761616	0.9996762159	-0.0117379846	
#timeindex 93
-0.1405162070	0.1529858583	-11.3219207149	0.0103411871	0.0078444643	0.9999157586	1951.8585799174	36.4107178474	-20.4718818795	-39.0061242705	2082.0329131932	-15.9304052963	0.0000000000	0.0000000000	0.0106666667	0.0100000000	1280	720	0.0000000000	-0.0000000000	20.8245919700	36.3001032238	0.9997710823	0.0186501129	-0.0104860033	-0.0187307988	0.9997952979	-0.0076498043	
#timeindex 94
-0.1490299492	0.1549973093	-11.5666354690	0.0101962853	0.0030433930	0.9999433852	1952.0649123783	23.2444454336	-19.9756836411	-24.8575181963	2082.3019459318	-6.0841532826	0.0000000000	0.0000000000	0.0106666667	0.0100000000	1280	720	0.0000000000	-0.0000000000	20.8245919700	36.3001032238	0.9998767689	0.0119061517	-0.0102318432	-0.0119366172	0.9999244878	-0.0029216194	
#timeindex 95
-0.1589676780	0.1602668302	-11.7705265948	0.0097084141	-0.0017107714	0.9999514088	1952.1668182773	13.5319974115	-18.9302134657	-14.3988849157	2082.4061253360	3.7024910008	0.0000000000	0.0000000000	0.0106666667	0.0100000000	1280	720	0.0000000000	-0.0000000000	20.8245919700	36.3001032238	0.9999289666	0.0069312909	-0.0096963377	-0.0069143659	0.9999745149	0.0017779417	
#timeindex 96
-0.1652621592	0.1667959328	-12.0060002610	0.0084578842	-0.0068252532	0.9999409383	1952.2355223161	0.8618709683	-16.5068744612	-0.7991002309	2082.4104887791	14.2205775105	0.0000000000	0.0000000000	0.0106666667	0.0100000000	1280	720	-0.0000000000	-0.0000000000	20.8245919700	36.3001032238	0.9999641578	0.0004414632	-0.0084550673	-0.0003837291	0.9999766102	0.0068287424	
#timeindex 97
-0.1661401926	0.1753360260	-12.2151702610	0.0084785769	-0.0129722568	0.9998799099	1952.1899110609	-13.1004537621	-16.7237430704	14.2035468992	2082.2370837230	26.8941180802	0.0000000000	0.0000000000	0.0106666667	0.0100000000	1280	720	-0.0000000000	-0.0000000000	20.8245919700	36.3001032238	0.9999407951	-0.0067102478	-0.0085661507	0.0068205643	0.9998933409	0.0129145955	
#timeindex 98
-0.1678618955	0.1811578673	-12.4569686826	0.0081881753	-0.0199714254	0.9997670208	1952.1425034152	-19.1929945203	-16.3716107915	20.8165198469	2081.9431984135	41.4185736671	0.0000000000	0.0000000000	0.0106666667	0.0100000000	1280	720	-0.0000000000	0.0000000000	20.8245919700	36.3001032238	0.9999165122	-0.0098309381	-0.0083857833	0.0099961238	0.9997522167	0.0198892606	
#timeindex 99
-0.1714533941	0.1934207227	-12.6601853294	0.0053740721	-0.0248877807	0.9996758063	1952.0623577851	-28.6997684486	-11.2084311190	30.9007116164	2081.5890628367	51.6568162353	0.0000000000	0.0000000000	0.0106666667	0.0100000000	1280	720	-0.0000000000	0.0000000000	20.8245919700	36.3001032238	0.9998754604	-0.0147004495	-0.0057411256	0.0148385676	0.9995821603	0.0248056799	
#timeindex 100
-0.1736759557	0.2044891374	-12.8929424050	0.0023788553	-0.0260873601	0.9996568365	1951.8781095983	-40.4487959863	-5.7003941298	43.2891985800	2081.3033137354	54.2113335342	0.0000000000	0.0000000000	0.0106666667	0.0100000000	1280	720	0.0000000000	-0.0000000000	20.8245919700	36.3001032238	0.9997810857	-0.0207184767	-0.0029198269	0.0207875375	0.9994449431	0.0260323629	
#timeindex 101
-0.1737156379	0.2171616695	-13.0982556258	-0.0022987613	-0.0247666819	0.9996906157	1951.6246705796	-51.4546055656	3.2129534784	54.7830529312	2081.0968047043	51.6837858938	0.0000000000	0.0000000000	0.0106666667	0.0100000000	1280	720	-0.0000000000	-0.0000000000	20.8245919700	36.3001032238	0.9996512705	-0.0263558166	0.0016457227	0.0263069034	0.9993457772	0.0248186308	
#timeindex 102
-0.1733836580	0.2310974625	-13.3362530736	-0.0077487376	-0.0233909645	0.9996963638	1951.2536840371	-62.6037688731	13.6595378174	66.4162670299	2080.8181941480	49.2019261801	0.0000000000	0.0000000000	0.0106666667	0.0100000000	1280	720	0.0000000000	-0.0000000000	20.8245919700	36.3001032238	0.9994612456	-0.0320665843	0.0069966190	0.0318931901	0.9992119880	0.0236268380	
#timeindex 103
-0.1722738916	0.2420771848	-13.5524373189	-0.0100353778	-0.0215714436	0.9997169419	1950.8775536330	-72.4486164821	18.0200726815	76.8420163579	2080.5399256216	45.6643140734	0.0000000000	0.0000000000	0.0106666667	0.0100000000	1280	720	0.0000000000	-0.0000000000	20.8245919700	36.3001032238	0.9992685860	-0.0371092621	0.0092301500	0.0368996504	0.9990783630	0.0219280715	
#timeindex 104
-0.1704562046	0.2528330491	-13.7930857305	-0.0096060392	-0.0184246227	0.9997841053	1950.7076095404	-77.0486842827	17.3227206340	81.8270776435	2080.4830559159	39.1265967645	0.0000000000	0.0000000000	0.0106666667	0.0100000000	1280	720	0.0000000000	0.0000000000	20.8245919700	36.3001032238	0.9991815381	-0.0394654855	0.0088729559	0.0392934842	0.9990510541	0.0187886499	
#timeindex 105
-0.1707620310	0.2622555100	-14.0045190579	-0.0098176574	-0.0171762872	0.9998042752	1950.6410589746	-78.6080809834	17.8040154263	83.5060144555	2080.4630015192	36.5616195303	0.0000000000	0.0000000000	0.0106666667	0.0100000000	1280	720	0.0000000000	0.0000000000	20.8245919700	36.3001032238	0.9991474499	-0.0402642317	0.0091194823	0.0400997122	0.9990414240	0.0175569440	
#timeindex 106
-0.1750021304	0.2740045204	-14.2382514138	-0.0114409243	-0.0167978801	0.9997934469	1950.5338653311	-80.4655998279	20.9685898330	85.4365349880	2080.3956016852	35.9311305312	0.0000000000	0.0000000000	0.0106666667	0.0100000000	1280	720	0.0000000000	0.0000000000	20.8245919700	36.3001032238	0.9990925437	-0.0412156806	0.0107404245	0.0410267510	0.9990090585	0.0172541823	
#timeindex 107
-0.1784441455	0.2821187249	-14.4521472169	-0.0142004269	-0.0133936275	0.9998094612	1950.4239698523	-81.4552015766	26.6109428712	86.4888150844	2080.4589067529	29.0986140720	0.0000000000	0.0000000000	0.0106666667	0.0100000000	1280	720	0.0000000000	0.0000000000	20.8245919700	36.3001032238	0.9990362536	-0.0417225694	0.0136305219	0.0415320575	0.9990394577	0.0139731977	
#timeindex 108
-0.1897754040	0.2826911462	-14.6762323547	-0.0176175626	-0.0076686952	0.9998153893	1950.5658304631	-75.1508555022	33.7941454365	79.8696798351	2080.8545125770	17.3677544360	0.0000000000	0.0000000000	0.0106666667	0.0100000000	1280	720	0.0000000000	0.0000000000	20.8245919700	36.3001032238	0.9991089168	-0.0384933893	0.0173098654	0.0383535389	0.9992294282	0.0083400215	
#timeindex 109
-0.2126284949	0.2830060352	-14.8575474443	-0.0172073850	-0.0019917714	0.9998499581	1951.0836152072	-60.4157339438	33.4577327506	64.3626974908	2081.4576971135	5.2540900019	0.0000000000	0.0000000000	0.0106666667	0.0100000000	1280	720	0.0000000000	-0.0000000000	20.8245919700	36.3001032238	0.9993741338	-0.0309458402	0.0171375498	0.0309070629	0.9995190783	0.0025230218	
#timeindex 110
-0.2268571320	0.2812635147	-15.0812551313	-0.0135597601	0.0031457736	0.9999031138	1951.5114036752	-48.9024969529	26.6184416554	52.2469275375	2081.7954867919	-5.8409672951	0.0000000000	0.0000000000	0.0106666667	0.0100000000	1280	720	0.0000000000	-0.0000000000	20.8245919700	36.3001032238	0.9995932535	-0.0250485885	0.0136343629	0.0250890522	0.9996812854	-0.0028048412	
#timeindex 111
-0.2320566801	0.2815946695	-15.2885881248	-0.0090536151	0.0059923333	0.9999410603	1951.5833916417	-49.9612152903	17.9693281391	53.4036787114	2081.7397900934	-11.9916890032	0.0000000000	0.0000000000	0.0106666667	0.0100000000	1280	720	0.0000000000	-0.0000000000	20.8245919700	36.3001032238	0.9996301268	-0.0255908798	0.0092041579	0.0256445259	0.9996545397	-0.0057584269	
#timeindex 112
-0.2399549166	0.2817100025	-15.5231121330	-0.0067298518	0.0051877563	0.9999638975	1951.5268420372	-53.4777848198	13.4114003021	57.1151244955	2081.6497533419	-10.4150913933	0.0000000000	0.0000000000	0.0106666667	0.0100000000	1280	720	-0.0000000000	0.0000000000	20.8245919700	36.3001032238	0.9996011612	-0.0273921192	0.0068695193	0.0274267676	0.9996113040	-0.0050013424	
#timeindex 113
-0.2447130712	0.2828827979	-15.7437734446	-0.0062747481	0.0036518788	0.9999736453	1951.2553686045	-62.7985482838	12.4732972495	67.0319404985	2081.3676913936	-7.1804831995	0.0000000000	0.0000000000	0.0106666667	0.0100000000	1280	720	0.0000000000	0.0000000000	20.8245919700	36.3001032238	0.9994621085	-0.0321663533	0.0063890089	0.0321888374	0.9994758574	-0.0034480787	
#timeindex 114
-0.2533603302	0.2828332520	-15.9840909147	-0.0051570628	0.0014201279	0.9999856939	1950.9065659906	-73.1915102338	10.1650343531	78.0852253813	2080.9931496425	-2.5526224394	0.0000000000	0.0000000000	0.0106666667	0.0100000000	1280	720	0.0000000000	0.0000000000	20.8245919700	36.3001032238	0.9992834466	-0.0374897834	0.0052066822	0.0374966412	0.9992960019	-0.0012257731	
#timeindex 115
-0.2681798356	0.2811212830	-16.2001018569	-0.0022285115	-0.0005546609	0.9999973630	1950.7883897469	-76.8302145438	4.3047509661	81.9494658866	2080.8456947091	1.3367926530	0.0000000000	0.0000000000	0.0106666667	0.0100000000	1280	720	-0.0000000000	0.0000000000	20.8245919700	36.3001032238	0.9992229149	-0.0393535820	0.0022049577	0.0393522553	0.9992251938	0.0006419298	
#timeindex 116
-0.2896817259	0.2829885914	-16.4292018231	0.0011671988	-0.0001722767	0.9999993040	1950.7164711234	-78.7194861839	-2.2904369820	83.9678143819	2080.7656392471	0.2604604948	0.0000000000	0.0000000000	0.0106666667	0.0100000000	1280	720	0.0000000000	0.0000000000	20.8245919700	36.3001032238	0.9991860771	-0.0403212952	-0.0011731960	0.0403214692	0.9991867511	0.0001250735	
#timeindex 117
-0.3192531734	0.2860687459	-16.6264701219	0.0032445320	-0.0006113399	0.9999945496	1950.8328436025	-75.5468089063	-6.3757591522	80.5869812311	2080.8990903345	1.0106751895	0.0000000000	0.0000000000	0.0106666667	0.0100000000	1280	720	0.0000000000	0.0000000000	20.8245919700	36.3001032238	0.9992456849	-0.0386962025	-0.0032657590	0.0386979881	0.9992508345	0.0004853277	
#timeindex 118
-0.3491795944	0.2931213333	-16.8660460073	0.0046168692	-0.0021448749	0.9999870419	1950.9993694722	-70.8118493799	-9.1595100948	75.5526163184	2081.0841349915	4.1149018612	0.0000000000	0.0000000000	0.0106666667	0.0100000000	1280	720	0.0000000000	0.0000000000	20.8245919700	36.3001032238	0.9993309819	-0.0362708856	-0.0046916377	0.0362804786	0.9993396932	0.0019759820	
#timeindex 119
-0.3783060435	0.3032642514	-17.0852289239	0.0039160171	-0.0030582015	0.9999876560	1950.9577344824	-72.1032852946	-7.8605872389	76.9348634810	2081.0287297283	6.0630016967	0.0000000000	0.0000000000	0.0106666667	0.0100000000	1280	720	0.0000000000	0.0000000000	20.8245919700	36.3001032238	0.9993096558	-0.0369323784	-0.0040263100	0.0369442357	0.9993130875	0.0029114624	
#timeindex 120
-0.4082034168	0.3130673131	-17.3293897430	0.0026869104	-0.0021175856	0.9999941482	1950.9054078419	-73.7272329906	-5.3980633287	78.6541145726	2080.9690619347	4.1953181687	0.0000000000	0.0000000000	0.0106666667	0.0100000000	1280	720	-0.0000000000	0.0000000000	20.8245919700	36.3001032238	0.9992828534	-0.0377641886	-0.0027649686	0.0377698227	0.9992844349	0.0020145980	
#timeindex 121
-0.4483962536	0.3358663285	-17.5233397695	0.0040557258	-0.0001503509	0.9999917642	1950.9434012273	-72.4832283564	-7.9234546485	77.3160775447	2081.0234336297	-0.0006891214	0.0000000000	0.0000000000	0.0106666667	0.0100000000	1280	720	0.0000000000	-0.0000000000	20.8245919700	36.3001032238	0.9993023141	-0.0371269909	-0.0040585117	0.0371272953	0.9993105443	-0.0000003309	
#timeindex 122
-0.4880927754	0.3561849757	-17.7731286515	0.0052952905	0.0012922285	0.9999851449	1950.9900595497	-70.9203295635	-10.2395659971	75.6331137890	2081.0829854962	-3.0897799106	0.0000000000	0.0000000000	0.0106666667	0.0100000000	1280	720	0.0000000000	0.0000000000	20.8245919700	36.3001032238	0.9993262132	-0.0363264508	-0.0052448585	0.0363191336	0.9993391412	-0.0014837169	
#timeindex 123
-0.5298303291	0.3802841700	-17.9880641724	0.0090089745	0.0020185919	0.9999573809	1951.0527023613	-67.7194020593	-17.4410295674	72.1933969063	2081.2017878349	-4.8516923804	0.0000000000	0.0000000000	0.0106666667	0.0100000000	1280	720	0.0000000000	-0.0000000000	20.8245919700	36.3001032238	0.9993582998	-0.0346868880	-0.0089335555	0.0346673764	0.9993961903	-0.0023297899	
#timeindex 124
-0.5766171460	0.4007914737	-18.2315233806	0.0139234473	0.0042043483	0.9998942249	1951.0736640323	-63.9117524045	-26.8998093482	68.0446890332	2081.3246156639	-9.6990560897	0.0000000000	0.0000000000	0.0106666667	0.0100000000	1280	720	0.0000000000	-0.0000000000	20.8245919700	36.3001032238	0.9993690367	-0.0327365530	-0.0137784836	0.0326751608	0.9994551724	-0.0046575011	
#timeindex 125
-0.6235250342	0.4193183141	-18.4304285231	0.0180069438	0.0072881689	0.9998112985	1950.9864551727	-62.8164110614	-34.6800310390	66.7219238229	2081.3256346018	-16.3736005190	0.0000000000	0.0000000000	0.0106666667	0.0100000000	1280	720	0.0000000000	-0.0000000000	20.8245919700	36.3001032238	0.9993243670	-0.0321755028	-0.0177636293	0.0320399669	0.9994556617	-0.0078626273	
#timeindex 126
-0.6767625856	0.4333256239	-18.6819485376	0.0201797421	0.0104955298	0.9997412775	1951.1119942812	-56.1587029920	-38.7935583446	59.4528154917	2081.4827110880	-23.0519703114	0.0000000000	0.0000000000	0.0106666667	0.0100000000	1280	720	0.0000000000	-0.0000000000	20.8245919700	36.3001032238	0.9993886700	-0.0287653254	-0.0198706393	0.0285493303	0.9995310900	-0.0110695904	
#timeindex 127
-0.7349659052	0.4447619729	-18.8999332571	0.0187600824	0.0134088776	0.9997340953	1951.3915797269	-47.6781157610	-35.9785236974	50.3285400591	2081.6508326547	-28.8644439901	0.0000000000	0.0000000000	0.0106666667	0.0100000000	1280	720	0.0000000000	-0.0000000000	20.8245919700	36.3001032238	0.9995318778	-0.0244214422	-0.0184287366	0.0241678397	0.9996118222	-0.0138607489	
#timeindex 128
-0.7935295923	0.4512968783	-19.1430905269	0.0179941755	0.0177113740	0.9996812076	1951.6682918005	-36.0272822107	-34.4915647060	37.7652309190	2081.7778795805	-37.5626754389	0.0000000000	0.0000000000	0.0106666667	0.0100000000	1280	720	-0.0000000000	0.0000000000	20.8245919700	36.3001032238	0.9996736139	-0.0184537114	-0.0176670940	0.0181349200	0.9996728304	-0.0180376525	
#timeindex 129
-0.8512252851	0.4565258425	-19.3474442042	0.0167866679	0.0234038992	0.9995851466	1951.9051015493	-22.8815095732	-32.2438425792	23.5918778245	2081.7457213294	-49.1373807894	0.0000000000	0.0000000000	0.0106666667	0.0100000000	1280	720	-0.0000000000	-0.0000000000	20.8245919700	36.3001032238	0.9997949114	-0.0117202505	-0.0165157772	0.0113288548	0.9996573879	-0.0235958433	
#timeindex 130
-0.9052942126	0.4593181458	-19.5901635408	0.0136775982	0.0291288462	0.9994820827	1952.0473725524	-17.9409767673	-26.1902841310	18.3133782042	2081.4875665333	-60.9133623217	0.0000000000	0.0000000000	0.0106666667	0.0100000000	1280	720	-0.0000000000	-0.0000000000	20.8245919700	36.3001032238	0.9998677847	-0.0091896359	-0.0134150542	0.0087941114	0.9995334216	-0.0292506871	
#timeindex 131
-0.9465734775	0.4554531297	-19.8128486188	0.0105501900	0.0341669813	0.9993604509	1952.1096577360	-19.1437769292	-19.9538040885	19.6797571140	2081.1431512004	-71.3596421999	0.0000000000	0.0000000000	0.0106666667	0.0100000000	1280	720	-0.0000000000	0.0000000000	20.8245919700	36.3001032238	0.9998996881	-0.0098057281	-0.0102206361	0.0094502486	0.9993680329	-0.0342670062	
#timeindex 132
-0.9865424364	0.4454234493	-20.0464064814	0.0069448995	0.0365776557	0.9993066814	1952.1104994367	-24.5120077553	-12.6694034459	25.6337024508	2080.9013894873	-76.3454497106	0.0000000000	0.0000000000	0.0106666667	0.0100000000	1280	720	0.0000000000	0.0000000000	20.8245919700	36.3001032238	0.9999001192	-0.0125554160	-0.0064894574	0.0123093420	0.9992519385	-0.0366611984	
#timeindex 133
-1.0212729610	0.4378573613	-20.2713561786	0.0043817796	0.0354716550	0.9993610767	1952.0391280538	-31.3778069066	-7.4451393260	33.1665786479	2080.8795176671	-74.0048523929	0.0000000000	0.0000000000	0.0106666667	0.0100000000	1280	720	0.0000000000	0.0000000000	20.8245919700	36.3001032238	0.9998635618	-0.0160721808	-0.0038135114	0.0159266403	0.9992414356	-0.0355372401	
#timeindex 134
-1.0579185662	0.4290257430	-20.5095866197	0.0052745459	0.0335673008	0.9994225410	1952.0367059556	-31.0437830634	-9.2593981501	32.7627131193	2081.0222122060	-70.0675680850	0.0000000000	0.0000000000	0.0106666667	0.0100000000	1280	720	0.0000000000	0.0000000000	20.8245919700	36.3001032238	0.9998623211	-0.0159010888	-0.0047428019	0.0157327035	0.9993099578	-0.0336465503	
#timeindex 135
-1.0963750762	0.4209525820	-20.7263512956	0.0068742875	0.0304821881	0.9995116710	1952.0314046556	-30.2293347685	-12.5034745864	31.8223356179	2081.2417317458	-63.6906599034	0.0000000000	0.0000000000	0.0106666667	0.0100000000	1280	720	0.0000000000	0.0000000000	20.8245919700	36.3001032238	0.9998596057	-0.0154839162	-0.0064044662	0.0152811328	0.9994153714	-0.0305843495	
#timeindex 136
-1.1244851349	0.4117475004	-20.9562086274	0.0073485881	0.0264941578	0.9996219575	1951.9797628720	-33.0180971983	-13.4746025765	34.8251911534	2081.4302408668	-55.4226093702	0.0000000000	0.0000000000	0.0106666667	0.0100000000	1280	720	-0.0000000000	-0.0000000000	20.8245919700	36.3001032238	0.9998331540	-0.0169123619	-0.0069018925	0.0167231085	0.9995058937	-0.0266140194	
#timeindex 137
-1.1473491078	0.4042579391	-21.1763603009	0.0080933293	0.0230239098	0.9997021544	1951.9283888702	-35.3221550105	-14.9888093839	37.2976356989	2081.5662133830	-48.2420235552	0.0000000000	0.0000000000	0.0106666667	0.0100000000	1280	720	0.0000000000	-0.0000000000	20.8245919700	36.3001032238	0.9998068395	-0.0180925347	-0.0076774918	0.0179103801	0.9995711879	-0.0231658914	
#timeindex 138
-1.1680150447	0.3976460157	-21.3944877429	0.0077960781	0.0218098056	0.9997317408	1951.8243838813	-40.9026585953	-14.3283399306	43.2844669563	2081.5066601369	-45.7469768304	0.0000000000	0.0000000000	0.0106666667	0.0100000000	1280	720	0.0000000000	-0.0000000000	20.8245919700	36.3001032238	0.9997535666	-0.0209509519	-0.0073391895	0.0207852653	0.9995425904	-0.0219677662	
#timeindex 139
-1.1802540748	0.3924624658	-21.5973692965	0.0062295062	0.0204956549	0.9997705344	1951.6823740536	-48.0391759989	-11.1759874966	50.9856997075	2081.3910942988	-42.9869533934	0.0000000000	0.0000000000	0.0106666667	0.0100000000	1280	720	0.0000000000	-0.0000000000	20.8245919700	36.3001032238	0.9996808270	-0.0246063826	-0.0057245075	0.0244834087	0.9994870955	-0.0206423989	
#timeindex 140
-1.1935433065	0.3922376595	-21.8310591811	0.0057305988	0.0184358632	0.9998136222	1951.6240778849	-50.5476855737	-10.2539954190	53.7058382420	2081.4070400751	-38.6875125540	0.0000000000	0.0000000000	0.0106666667	0.0100000000	1280	720	-0.0000000000	0.0000000000	20.8245919700	36.3001032238	0.9996509669	-0.0258912786	-0.0052522494	0.0257896233	0.9994947527	-0.0185778010	
#timeindex 141
-1.2014637300	0.3978734797	-22.0442138053	0.0049361748	0.0177610526	0.9998300752	1951.5017178404	-55.3439416480	-8.6514569714	58.8596035785	2081.2936686145	-37.2628395994	0.0000000000	0.0000000000	0.0106666667	0.0100000000	1280	720	0.0000000000	0.0000000000	20.8245919700	36.3001032238	0.9995882922	-0.0283479925	-0.0044314053	0.0282644691	0.9994403115	-0.0178936709	
#timeindex 142
-1.2087255102	0.4045304319	-22.2734926630	0.0038784712	0.0176691455	0.9998363660	1951.3870440262	-59.5220759044	-6.5177607708	63.3569843256	2081.1658770078	-37.0242093596	0.0000000000	0.0000000000	0.0106666667	0.0100000000	1280	720	0.0000000000	0.0000000000	20.8245919700	36.3001032238	0.9995295546	-0.0304880952	-0.0033384943	0.0304241180	0.9993789458	-0.0177790803	
#timeindex 143
-1.2142352380	0.4146663120	-22.4600476134	0.0043677871	0.0173454485	0.9998400161	1951.3995801019	-58.9929191198	-7.5012392840	62.7769267679	2081.1948282296	-36.3792740317	0.0000000000	0.0000000000	0.0106666667	0.0100000000	1280	720	0.0000000000	0.0000000000	20.8245919700	36.3001032238	0.9995359758	-0.0302170532	-0.0038422467	0.0301455735	0.9993928482	-0.0174693814	
#timeindex 144
-1.2163718735	0.4248864064	-22.7049841519	0.0038955416	0.0175581670	0.9998382547	1951.3301089749	-61.3594500137	-6.5251835949	65.3172854904	2081.1092369058	-36.8008620115	0.0000000000	0.0000000000	0.0106666667	0.0100000000	1280	720	-0.0000000000	-0.0000000000	20.8245919700	36.3001032238	0.9995003916	-0.0314292257	-0.0033422964	0.0313654575	0.9993517472	-0.0176718286	
#timeindex 145
-1.2167694644	0.4371176190	-22.9004958514	0.0020556667	0.0197181462	0.9998034652	1951.2162098187	-65.1507535675	-2.7269340276	69.4231243637	2080.8942224283	-41.1821809951	0.0000000000	0.0000000000	0.0106666667	0.0100000000	1280	720	0.0000000000	-0.0000000000	20.8245919700	36.3001032238	0.9994420508	-0.0333711879	-0.0013967763	0.0333370875	0.9992484969	-0.0197757445	
#timeindex 146
-1.2168205117	0.4537959979	-23.1284071855	-0.0001975095	0.0239313795	0.9997135840	1951.1647639885	-66.6999933594	1.9821641104	71.1768803594	2080.6467314303	-49.7929498399	0.0000000000	0.0000000000	0.0106666667	0.0100000000	1280	720	-0.0000000000	-0.0000000000	20.8245919700	36.3001032238	0.9994156994	-0.0341647316	0.0010152940	0.0341792437	0.9991296513	-0.0239106485	
#timeindex 147
-1.2147476300	0.4737222112	-23.3326738294	-0.0040765572	0.0285914929	0.9995828671	1950.9608052055	-71.7531367714	10.0089077368	76.8100008454	2080.2003169850	-59.1876013113	0.0000000000	0.0000000000	0.0106666667	0.0100000000	1280	720	0.0000000000	-0.0000000000	20.8245919700	36.3001032238	0.9993112287	-0.0367530271	0.0051267119	0.0368842765	0.9989152825	-0.0284219741	
#timeindex 148
-1.2107233433	0.4922930456	-23.5743767977	-0.0075949703	0.0309637981	0.9994916506	1950.7363435821	-76.3480579764	17.1885482235	81.9642338390	2079.8669167652	-63.8105013286	0.0000000000	0.0000000000	0.0106666667	0.0100000000	1280	720	0.0000000000	0.0000000000	20.8245919700	36.3001032238	0.9991962561	-0.0391066143	0.0088042308	0.0393593469	0.9987551832	-0.0306418975	
#timeindex 149
-1.2082354554	0.5094857155	-23.7943118758	-0.0099233798	0.0339947994	0.9993727433	1950.5933060375	-78.7176569238	22.0462978529	84.7122562379	2079.5611276847	-69.8974751269	0.0000000000	0.0000000000	0.0106666667	0.0100000000	1280	720	-0.0000000000	0.0000000000	20.8245919700	36.3001032238	0.9991229902	-0.0403203582	0.0112924426	0.0406789513	0.9986083428	-0.0335648714	
#timeindex 150
-1.2057007118	0.5231634767	-24.0393548566	-0.0120043944	0.0379444703	0.9992077420	1950.3396197787	-83.4538445382	26.6003321837	90.0235339499	2079.0546864121	-77.8696436750	0.0000000000	0.0000000000	0.0106666667	0.0100000000	1280	720	-0.0000000000	0.0000000000	20.8245919700	36.3001032238	0.9989930483	-0.0427463041	0.0136250870	0.0432294347	0.9983651490	-0.0373931186	
#timeindex 151
-1.2046802875	0.5315850413	-24.2669382086	-0.0155755322	0.0395706002	0.9990953760	1949.9697550651	-89.2368462672	33.9336693945	96.5321558853	2078.6499206837	-80.8229997277	0.0000000000	0.0000000000	0.0106666667	0.0100000000	1280	720	0.0000000000	0.0000000000	20.8245919700	36.3001032238	0.9988035980	-0.0457084439	0.0173813317	0.0463548847	0.9981707799	-0.0388113245	
#timeindex 152
-1.2003259303	0.5353228682	-24.5401393301	-0.0186875471	0.0414490280	0.9989658421	1949.5486337350	-95.5094861401	40.4328712549	103.5590586252	2078.1739560409	-84.2901949999	0.0000000000	0.0000000000	0.0106666667	0.0100000000	1280	720	0.0000000000	0.0000000000	20.8245919700	36.3001032238	0.9985878934	-0.0489213836	0.0207103198	0.0497292138	0.9979422209	-0.0404762769	
#timeindex 153
-1.1996741142	0.5421758195	-24.7763567439	-0.0204628586	0.0474376628	0.9986645781	1949.3505537249	-97.6809440846	44.5825770223	106.3097515385	2077.5036109853	-96.5053896622	0.0000000000	0.0000000000	0.0106666667	0.0100000000	1280	720	0.0000000000	0.0000000000	20.8245919700	36.3001032238	0.9984864339	-0.0500336368	0.0228358610	0.0510501006	0.9976203202	-0.0463420315	
#timeindex 154
-1.2057007906	0.5453811184	-25.0332868292	-0.0212356383	0.0528768422	0.9983752237	1949.3869772116	-96.0224653979	46.5494740628	104.8830288676	2077.0220449918	-107.7742178665	0.0000000000	0.0000000000	0.0106666667	0.0100000000	1280	720	0.0000000000	0.0000000000	20.8245919700	36.3001032238	0.9985050905	-0.0491841392	0.0238433350	0.0503649863	0.9973890715	-0.0517533395	
#timeindex 155
-1.2112589358	0.5449486483	-25.2805241349	-0.0192847154	0.0555343374	0.9982705230	1949.7352412611	-90.5845951686	42.7045011875	98.9861305327	2076.9992140708	-113.6323803962	0.0000000000	0.0000000000	0.0106666667	0.0100000000	1280	720	0.0000000000	-0.0000000000	20.8245919700	36.3001032238	0.9986834766	-0.0463987810	0.0218738826	0.0475332869	0.9973781081	-0.0545664379	
#timeindex 156
-1.2248973264	0.5404547583	-25.5364797496	-0.0153979426	0.0590080407	0.9981387451	1950.1758902215	-84.1520994244	35.0596018245	91.8018872852	2076.8916923288	-121.3656417184	0.0000000000	0.0000000000	0.0106666667	0.0100000000	1280	720	0.0000000000	0.0000000000	20.8245919700	36.3001032238	0.9989091835	-0.0431039607	0.0179580511	0.0440834027	0.9973264760	-0.0582799614	
#timeindex 157
-1.2318599790	0.5361846103	-25.7697556864	-0.0138905831	0.0622978490	0.9979609360	1950.3366888100	-81.5134906251	32.2351585453	88.9124911335	2076.5947654036	-128.3941446563	0.0000000000	0.0000000000	0.0106666667	0.0100000000	1280	720	0.0000000000	0.0000000000	20.8245919700	36.3001032238	0.9989915470	-0.0417524259	0.0165113291	0.0426959103	0.9971838912	-0.0616550590	
#timeindex 158
-1.2505357406	0.5249441646	-26.0331577369	-0.0149151176	0.0627577126	0.9979173356	1950.4621704655	-77.6885003261	34.0378145442	84.9736924155	2076.7015364600	-129.3309987010	0.0000000000	0.0000000000	0.0106666667	0.0100000000	1280	720	0.0000000000	-0.0000000000	20.8245919700	36.3001032238	0.9990558206	-0.0397932088	0.0174346764	0.0408044933	0.9972351629	-0.0621049377	
#timeindex 159
-1.2682269414	0.5164867131	-26.2793448596	-0.0169435671	0.0616772748	0.9979523182	1950.5164653761	-74.5595620569	37.7245851073	81.8492132235	2076.9723917502	-126.9751840533	0.0000000000	0.0000000000	0.0106666667	0.0100000000	1280	720	-0.0000000000	0.0000000000	20.8245919700	36.3001032238	0.9990836312	-0.0381905200	0.0193230953	0.0393041138	0.9973652280	-0.0609736720	
#timeindex 160
-1.2837388134	0.5068697343	-26.5576153961	-0.0175844808	0.0576389513	0.9981826172	1950.5248292010	-73.8754293904	38.6272691450	81.0321117240	2077.5031674195	-118.5356207848	0.0000000000	0.0000000000	0.0106666667	0.0100000000	1280	720	0.0000000000	-0.0000000000	20.8245919700	36.3001032238	0.9990879153	-0.0378400970	0.0197854635	0.0389117404	0.9976201072	-0.0569209812	
#timeindex 161
-1.3058900961	0.5017366894	-26.8108857831	-0.0153088911	0.0550107263	0.9983683979	1950.6936884242	-71.7226357804	33.8637236206	78.3663797392	2077.8979717259	-113.2918213597	0.0000000000	0.0000000000	0.0106666667	0.0100000000	1280	720	0.0000000000	-0.0000000000	20.8245919700	36.3001032238	0.9991744075	-0.0367374040	0.0173455044	0.0376316520	0.9978096928	-0.0544029009	
#timeindex 162
-1.3328389189	0.5029457652	-27.0970150302	-0.0140519297	0.0526985808	0.9985115937	1950.8799336046	-67.8314273663	31.0344395671	73.9903334047	2078.3064805213	-108.6458041028	0.0000000000	0.0000000000	0.0106666667	0.0100000000	1280	720	-0.0000000000	0.0000000000	20.8245919700	36.3001032238	0.9992698051	-0.0347442690	0.0158963029	0.0355302680	0.9980058594	-0.0521718765	
#timeindex 163
-1.3615144815	0.5043207291	-27.3506607416	-0.0134415510	0.0486380147	0.9987260226	1951.0858491639	-62.4675941861	29.3012489101	68.0673775550	2078.9270017509	-100.3277661807	0.0000000000	0.0000000000	0.0106666667	0.0100000000	1280	720	0.0000000000	-0.0000000000	20.8245919700	36.3001032238	0.9993752781	-0.0319968336	0.0150085368	0.0326860558	0.9983038346	-0.0481775424	
#timeindex 164
-1.3916200070	0.5078762282	-27.6543947922	-0.0123073318	0.0438893321	0.9989605879	1951.2983645892	-56.8091380464	26.5361735106	61.7757278616	2079.5698676219	-90.6048138302	0.0000000000	0.0000000000	0.0106666667	0.0100000000	1280	720	-0.0000000000	-0.0000000000	20.8245919700	36.3001032238	0.9994841317	-0.0290984880	0.0135922239	0.0296647963	0.9986125397	-0.0435085662	
#timeindex 165
-1.4297987988	0.5177951697	-27.9182339022	-0.0111487023	0.0408354788	0.9991036834	1951.4951917143	-50.9320494507	23.8578576888	55.3180216002	2080.0128194794	-84.3972419613	0.0000000000	0.0000000000	0.0106666667	0.0100000000	1280	720	0.0000000000	-0.0000000000	20.8245919700	36.3001032238	0.9995849495	-0.0260881555	0.0122203506	0.0265637962	0.9988252459	-0.0405276810	
#timeindex 166
-1.4702746701	0.5261104022	-28.2134115854	-0.0090465532	0.0403323628	0.9991453650	1951.6658923608	-45.9963972247	19.5276818091	49.8609969512	2080.1862278198	-83.5191339450	0.0000000000	0.0000000000	0.0106666667	0.0100000000	1280	720	0.0000000000	-0.0000000000	20.8245919700	36.3001032238	0.9996723849	-0.0235600408	0.0100023699	0.0239433248	0.9989085168	-0.0401060122	
#timeindex 167
-1.5049043443	0.5409083036	-28.4751322144	-0.0064600307	0.0413957853	0.9991219430	1951.7998934819	-42.0436781519	14.3617286645	45.4413615380	2080.1908043911	-85.8929982677	0.0000000000	0.0000000000	0.0106666667	0.0100000000	1280	720	0.0000000000	-0.0000000000	20.8245919700	36.3001032238	0.9997410222	-0.0215353992	0.0073562917	0.0218210093	0.9989107145	-0.0412459454	
#timeindex 168
-1.5438889622	0.5543219370	-28.7730064186	-0.0036139412	0.0443481357	0.9990096007	1951.8856720898	-39.5141901747	8.8151111207	42.5237216986	2079.9833420659	-92.1810012119	0.0000000000	0.0000000000	0.0106666667	0.0100000000	1280	720	0.0000000000	-0.0000000000	20.8245919700	36.3001032238	0.9997849593	-0.0202397577	0.0045152314	0.0204199543	0.9988110908	-0.0442654537	
#timeindex 169
-1.5792641699	0.5675782946	-29.0565783308	0.0008832348	0.0442825359	0.9990186569	1951.9478362167	-37.3683582878	-0.0693306093	39.8171914385	2080.0345247931	-92.2348854712	0.0000000000	0.0000000000	0.0106666667	0.0100000000	1280	720	-0.0000000000	-0.0000000000	20.8245919700	36.3001032238	0.9998168007	-0.0191406306	-0.0000355122	0.0191202745	0.9988356688	-0.0442913290	
#timeindex 170
-1.6169796296	0.5731479682	-29.3704635205	0.0068661094	0.0411726833	0.9991284535	1951.9904424320	-32.9346903132	-12.0570786997	34.5702015127	2080.3967758062	-85.9678052855	0.0000000000	0.0000000000	0.0106666667	0.0100000000	1280	720	0.0000000000	-0.0000000000	20.8245919700	36.3001032238	0.9998386243	-0.0168696397	-0.0061758156	0.0166006621	0.9990096223	-0.0412818678	
#timeindex 171
-1.6612698636	0.5749121124	-29.6560741280	0.0110853344	0.0391499392	0.9991718559	1952.0439098665	-24.3456569314	-20.7030736939	25.0826358861	2080.7006258359	-81.8050987796	0.0000000000	0.0000000000	0.0106666667	0.0100000000	1280	720	0.0000000000	-0.0000000000	20.8245919700	36.3001032238	0.9998660111	-0.0124702087	-0.0106044232	0.0120447190	0.9991555315	-0.0392829300	
#timeindex 172
-1.7078600308	0.5817817214	-29.9479872575	0.0123612570	0.0411151353	0.9990779474	1952.1119801738	-14.1416380943	-23.5708560074	14.0367784819	2080.6436220346	-85.7985670022	0.0000000000	0.0000000000	0.0106666667	0.0100000000	1280	720	0.0000000000	-0.0000000000	20.8245919700	36.3001032238	0.9999008777	-0.0072435580	-0.0120733441	0.0067404819	0.9991281582	-0.0412005993	
#timeindex 173
-1.7548022013	0.5827652520	-30.2417727325	0.0092211262	0.0444605060	0.9989685852	1952.2177455979	-5.1021296833	-17.7931549769	4.5928262370	2080.3928237595	-92.6332119732	0.0000000000	0.0000000000	0.0106666667	0.0100000000	1280	720	0.0000000000	-0.0000000000	20.8245919700	36.3001032238	0.9999550523	-0.0026133869	-0.0091139194	0.0022054820	0.9990077245	-0.0444826060	
#timeindex 174
-1.8041055345	0.5897379624	-30.4866156440	0.0014620701	0.0533507355	0.9985747650	1952.2996639028	3.6670601279	-3.0543925510	-4.0797736477	2079.4897535039	-111.0946789112	0.0000000000	0.0000000000	0.0106666667	0.0100000000	1280	720	0.0000000000	0.0000000000	20.8245919700	36.3001032238	0.9999970121	0.0018783229	-0.0015645054	-0.0019591134	0.9985740688	-0.0533478299	
#timeindex 175
-1.8328027977	0.5791531483	-30.7672650356	-0.0069581115	0.0647266785	0.9978787711	1952.2373591451	9.8890253469	12.9713166071	-9.6303554355	2078.0655708558	-134.8593587449	0.0000000000	0.0000000000	0.0106666667	0.0100000000	1280	720	0.0000000000	-0.0000000000	20.8245919700	36.3001032238	0.9999650987	0.0050653063	0.0066441019	-0.0046245110	0.9978901742	-0.0647596644	
#timeindex 176
-1.8527481329	0.5679077316	-31.0283038271	-0.0143128574	0.0681846361	0.9975700464	1952.0480772773	16.8468503854	26.8559481111	-15.9730669575	2077.5350148558	-142.2302019381	0.0000000000	0.0000000000	0.0106666667	0.0100000000	1280	720	-0.0000000000	-0.0000000000	20.8245919700	36.3001032238	0.9998681457	0.0086292081	0.0137560173	-0.0076702905	0.9976354004	-0.0682991543	
#timeindex 177
-1.8863069517	0.5442558875	-31.3261776576	-0.0196987877	0.0652184274	0.9976765581	1951.8435259210	20.4898562067	37.1990649326	-19.2172636809	2077.9107277796	-136.2131099354	0.0000000000	0.0000000000	0.0106666667	0.0100000000	1280	720	0.0000000000	-0.0000000000	20.8245919700	36.3001032238	0.9997633714	0.0104952100	0.0190539160	-0.0092281586	0.9978158183	-0.0654097377	
#timeindex 178
-1.9049049442	0.5325421134	-31.6170508409	-0.0208696195	0.0629156869	0.9978006190	1951.8077748741	19.3598094721	39.6025508898	-17.9473153939	2078.2309292315	-131.4169160311	0.0000000000	0.0000000000	0.0106666667	0.0100000000	1280	720	-0.0000000000	-0.0000000000	20.8245919700	36.3001032238	0.9997450592	0.0099163832	0.0202850174	-0.0086183275	0.9979695795	-0.0631065983	
#timeindex 179
-1.9203768970	0.5235949703	-31.8889502096	-0.0207318017	0.0597609753	0.9979974039	1951.8358466713	16.3748214410	39.5657325279	-14.9093786932	2078.6638685713	-124.7819661902	0.0000000000	0.0000000000	0.0106666667	0.0100000000	1280	720	0.0000000000	-0.0000000000	20.8245919700	36.3001032238	0.9997594380	0.0083874278	0.0202661584	-0.0071595058	0.9981774777	-0.0599204855	
#timeindex 180
-1.9341822157	0.5170602148	-32.1755980580	-0.0230302890	0.0537403173	0.9982893288	1951.7761733138	9.1118117826	44.5364849243	-7.1496742785	2079.4272151823	-112.1055131572	0.0000000000	0.0000000000	0.0106666667	0.0100000000	1280	720	0.0000000000	-0.0000000000	20.8245919700	36.3001032238	0.9997288724	0.0046672059	0.0228122520	-0.0034332842	0.9985440378	-0.0538332340	
#timeindex 181
-1.9471137241	0.5171461880	-32.4348726537	-0.0248079106	0.0486062170	0.9985098914	1951.7023878615	5.3229091298	48.2308010821	-3.1687046773	2079.9900210935	-101.3300479888	0.0000000000	0.0000000000	0.0106666667	0.0100000000	1280	720	0.0000000000	-0.0000000000	20.8245919700	36.3001032238	0.9996910784	0.0027264735	0.0247045358	-0.0015216167	0.9988142981	-0.0486588396	
#timeindex 182
-1.9516660994	0.5107813536	-32.7143034638	-0.0253519027	0.0454715319	0.9986438909	1951.6778852104	1.5695865464	49.4744691505	0.7277033479	2080.3045002504	-94.7046136619	0.0000000000	0.0000000000	0.0106666667	0.0100000000	1280	720	0.0000000000	-0.0000000000	20.8245919700	36.3001032238	0.9996785278	0.0008039656	0.0253415612	0.0003494442	0.9989653114	-0.0454772962	
#timeindex 183
-1.9497132861	0.5139087147	-32.9685091047	-0.0251640051	0.0410334601	0.9988408422	1951.6765047634	-4.4632719490	49.3523482391	6.9154089867	2080.6998468502	-85.3031746140	0.0000000000	0.0000000000	0.0106666667	0.0100000000	1280	720	0.0000000000	-0.0000000000	20.8245919700	36.3001032238	0.9996778207	-0.0022861545	0.0252790090	0.0033207897	0.9991551574	-0.0409627112	
#timeindex 184
-1.9446634963	0.5227031593	-33.2496119839	-0.0254651678	0.0352361315	0.9990545232	1951.6402342386	-9.4466129586	50.0790567362	11.9490918758	2081.1416268854	-73.0962051780	0.0000000000	0.0000000000	0.0106666667	0.0100000000	1280	720	-0.0000000000	-0.0000000000	20.8245919700	36.3001032238	0.9996592424	-0.0048386961	0.0256512399	0.0057379717	0.9993673009	-0.0351009063	
#timeindex 185
-1.9395604483	0.5433166395	-33.4907081751	-0.0281983236	0.0310586726	0.9991197193	1951.4346029032	-17.4986214404	55.6196292545	20.4914022369	2081.3708510984	-64.1232391224	0.0000000000	0.0000000000	0.0106666667	0.0100000000	1280	720	0.0000000000	0.0000000000	20.8245919700	36.3001032238	0.9995539150	-0.0089630549	0.0284892038	0.0098400018	0.9994773747	-0.0307920747	
#timeindex 186
-1.9353914186	0.5576139432	-33.7634075145	-0.0303857284	0.0298515685	0.9990923838	1951.1912979582	-27.0412332046	60.1501853519	30.7330853539	2081.3312771532	-61.2527499123	0.0000000000	0.0000000000	0.0106666667	0.0100000000	1280	720	0.0000000000	0.0000000000	20.8245919700	36.3001032238	0.9994292905	-0.0138509230	0.0308098223	0.0147580732	0.9994583712	-0.0294136615	
#timeindex 187
-1.9242510705	0.5791983208	-34.0079407497	-0.0301547847	0.0308985264	0.9990675503	1951.1779611812	-28.7653003573	59.7819003954	32.6246941741	2081.2387159286	-63.3825197757	0.0000000000	0.0000000000	0.0106666667	0.0100000000	1280	720	0.0000000000	-0.0000000000	20.8245919700	36.3001032238	0.9994224592	-0.0147340160	0.0306211812	0.0156664266	0.9994139232	-0.0304363802	
#timeindex 188
-1.9161944294	0.6009233505	-34.2961964051	-0.0305431142	0.0320173528	0.9990205240	1951.1658675945	-27.9691122930	60.5494856358	31.8723748929	2081.1777250540	-65.7246956701	0.0000000000	0.0000000000	0.0106666667	0.0100000000	1280	720	0.0000000000	0.0000000000	20.8245919700	36.3001032238	0.9994162647	-0.0143261966	0.0310143498	0.0153051618	0.9993846353	-0.0315610965	
#timeindex 189
-1.9078668818	0.6241554727	-34.5454362375	-0.0300047724	0.0339633152	0.9989725756	1951.2568862949	-23.7335010727	59.4141307467	27.4421520469	2081.1038132148	-69.9296366148	0.0000000000	0.0000000000	0.0106666667	0.0100000000	1280	720	0.0000000000	0.0000000000	20.8245919700	36.3001032238	0.9994628859	-0.0121566533	0.0304328041	0.0131777622	0.9993491427	-0.0335803154	
#timeindex 190
-1.8955333883	0.6461425550	-34.8099667551	-0.0296013545	0.0383631966	0.9988253225	1951.3265054519	-19.7263498120	58.5874949356	23.4141667185	2080.8198351093	-79.2268753379	0.0000000000	0.0000000000	0.0106666667	0.0100000000	1280	720	0.0000000000	0.0000000000	20.8245919700	36.3001032238	0.9994985458	-0.0101041306	0.0300093889	0.0112435176	0.9992127760	-0.0380448632	
#timeindex 191
-1.8806804132	0.6637235832	-35.0529824724	-0.0296872636	0.0419617638	0.9986780646	1951.2818191362	-22.7911782904	58.9625204643	26.9175692611	2080.4829723331	-86.6161270212	0.0000000000	0.0000000000	0.0106666667	0.0100000000	1280	720	0.0000000000	0.0000000000	20.8245919700	36.3001032238	0.9994756568	-0.0116739815	0.0302014826	0.0129258567	0.9990510140	-0.0415931929	
#timeindex 192
-1.8668897105	0.6762086943	-35.3186605564	-0.0294119515	0.0453358825	0.9985387298	1951.2536251191	-25.8194126978	58.6464210889	30.3365022018	2080.1357034673	-93.5492328027	0.0000000000	0.0000000000	0.0106666667	0.0100000000	1280	720	-0.0000000000	0.0000000000	20.8245919700	36.3001032238	0.9994612154	-0.0132250884	0.0300395718	0.0145676334	0.9988842550	-0.0449224806	
#timeindex 193
-1.8543508314	0.6816946298	-35.5753792841	-0.0258577579	0.0505489468	0.9983867889	1951.4425008101	-26.0642568160	51.8611113200	30.5533165082	2079.6111192049	-104.5006932655	0.0000000000	0.0000000000	0.0106666667	0.0100000000	1280	720	-0.0000000000	0.0000000000	20.8245919700	36.3001032238	0.9995579604	-0.0133505012	0.0265640349	0.0146717480	0.9986323488	-0.0501813881	
#timeindex 194
-1.8481649036	0.6786145137	-35.8372258245	-0.0192029545	0.0540093509	0.9983557665	1951.7710973740	-24.0345199769	38.8417252946	27.8323391837	2079.2616596188	-111.9491799795	0.0000000000	0.0000000000	0.0106666667	0.0100000000	1280	720	-0.0000000000	0.0000000000	20.8245919700	36.3001032238	0.9997262724	-0.0123108397	0.0198953111	0.0133651306	0.9984645378	-0.0537581625	
#timeindex 195
-1.8406793312	0.6670444987	-36.0557455678	-0.0122274632	0.0557512702	0.9983698138	1951.9833975503	-24.8545279844	25.2947118072	27.9725043066	2079.0512973083	-115.7564223995	0.0000000000	0.0000000000	0.0106666667	0.0100000000	1280	720	-0.0000000000	-0.0000000000	20.8245919700	36.3001032238	0.9998350158	-0.0127308600	0.0129563287	0.0134324381	0.9983635215	-0.0555864060	
#timeindex 196
-1.8382235637	0.6538648890	-36.3052010627	-0.0130840239	0.0597621300	0.9981268938	1951.9418114491	-26.1286948246	27.1516176787	29.5492176102	2078.5502608767	-124.0643539103	0.0000000000	0.0000000000	0.0106666667	0.0100000000	1280	720	0.0000000000	0.0000000000	20.8245919700	36.3001032238	0.9998137147	-0.0133835073	0.0139074636	0.0141895782	0.9981229231	-0.0595758871	
#timeindex 197
-1.8486549211	0.6382454020	-36.5209883081	-0.0188355952	0.0635703718	0.9977995932	1951.7993332158	-22.5935023768	38.2838193958	26.6426710537	2078.1073911641	-131.8944503444	0.0000000000	0.0000000000	0.0106666667	0.0100000000	1280	720	0.0000000000	0.0000000000	20.8245919700	36.3001032238	0.9997407353	-0.0115727290	0.0196095434	0.0127938502	0.9979102564	-0.0633359110	
#timeindex 198
-1.8605549488	0.6238355572	-36.7681370766	-0.0246359049	0.0644768806	0.9976150581	1951.6253000613	-15.3621597245	49.1878697246	19.7301357528	2078.0614130240	-133.8200007739	0.0000000000	0.0000000000	0.0106666667	0.0100000000	1280	720	0.0000000000	0.0000000000	20.8245919700	36.3001032238	0.9996515929	-0.0078687274	0.0251947607	0.0094744405	0.9978881776	-0.0642605632	
#timeindex 199
-1.8696993297	0.6127244550	-36.9940253531	-0.0293842719	0.0627001006	0.9975997504	1951.3907786027	-13.1032154372	58.3017087935	17.8424399529	2078.3147806815	-130.0985276651	0.0000000000	0.0000000000	0.0106666667	0.0100000000	1280	720	0.0000000000	0.0000000000	20.8245919700	36.3001032238	0.9995314675	-0.0067116624	0.0298630050	0.0085679662	0.9980098451	-0.0624735063	
#timeindex 200
-1.8822842646	0.6022345847	-37.2616489526	-0.0301889293	0.0592843242	0.9977845446	1951.3670705252	-10.2567152719	59.6498967351	14.6883155101	2078.7676483701	-123.0675612853	0.0000000000	0.0000000000	0.0106666667	0.0100000000	1280	720	-0.0000000000	0.0000000000	20.8245919700	36.3001032238	0.9995193239	-0.0052536426	0.0305535670	0.0070533509	0.9982273129	-0.0590972258	
#timeindex 201
-1.9027593615	0.5976233949	-37.5085043803	-0.0290445491	0.0538887585	0.9981244491	1951.4603249084	-6.1003626476	57.1151486267	9.7779045930	2079.4230885038	-111.9835646082	0.0000000000	0.0000000000	0.0106666667	0.0100000000	1280	720	-0.0000000000	0.0000000000	20.8245919700	36.3001032238	0.9995670902	-0.0031246968	0.0292552312	0.0046953643	0.9985420562	-0.0537746741	
#timeindex 202
-1.9202854654	0.5946459572	-37.7736979054	-0.0265963875	0.0479879959	0.9984937578	1951.6018909742	-4.6209206639	52.2059436954	7.5938336545	2080.0541817770	-99.7659346950	0.0000000000	0.0000000000	0.0106666667	0.0100000000	1280	720	-0.0000000000	0.0000000000	20.8245919700	36.3001032238	0.9996396024	-0.0023669045	0.0267406632	0.0036465702	0.9988451081	-0.0479077500	
#timeindex 203
-1.9434415644	0.5963541995	-38.0126212471	-0.0235559621	0.0441512652	0.9987471063	1951.7597256587	-1.9400733133	46.1190170219	4.2387792628	2080.4274731777	-91.8687583505	0.0000000000	0.0000000000	0.0106666667	0.0100000000	1280	720	0.0000000000	0.0000000000	20.8245919700	36.3001032238	0.9997204477	-0.0009937345	0.0236228485	0.0020354681	0.9990243632	-0.0441155142	
#timeindex 204
-1.9700576464	0.5996616840	-38.2659339975	-0.0212023875	0.0413469544	0.9989198607	1951.8595131231	-3.5545611814	41.5759599347	5.6210784863	2080.6749254363	-86.0032865673	0.0000000000	0.0000000000	0.0106666667	0.0100000000	1280	720	0.0000000000	0.0000000000	20.8245919700	36.3001032238	0.9997715603	-0.0018206993	0.0212958269	0.0026992502	0.9991431901	-0.0412989060	
#timeindex 205
-1.9940804194	0.6082169084	-38.5019722874	-0.0181364331	0.0393505192	0.9990608622	1951.9475513182	-10.5906070991	35.8517818670	12.7908771114	2080.8156022271	-81.7259454156	0.0000000000	0.0000000000	0.0106666667	0.0100000000	1280	720	-0.0000000000	0.0000000000	20.8245919700	36.3001032238	0.9998166548	-0.0054246669	0.0183638175	0.0061421982	0.9992107433	-0.0392449204	
#timeindex 206
-2.0212045013	0.6176551213	-38.7713582089	-0.0142518361	0.0389355057	0.9991400861	1952.0185885815	-17.5057949147	28.5259758039	19.8415090462	2080.7963393245	-80.8035638798	0.0000000000	0.0000000000	0.0106666667	0.0100000000	1280	720	-0.0000000000	0.0000000000	20.8245919700	36.3001032238	0.9998530411	-0.0089667293	0.0146114304	0.0095279221	0.9992014933	-0.0388019914	
#timeindex 207
-2.0488503000	0.6347627921	-38.9897167082	-0.0091426184	0.0420015558	0.9990757138	1952.0610080495	-24.4478142157	18.8912559594	26.8999248839	2080.4580911847	-87.2171544394	0.0000000000	0.0000000000	0.0106666667	0.0100000000	1280	720	0.0000000000	0.0000000000	20.8245919700	36.3001032238	0.9998747690	-0.0125225352	0.0096763831	0.0129173839	0.9990390660	-0.0418818071	
#timeindex 208
-2.0772009620	0.6485519731	-39.2493357818	-0.0062444527	0.0443890579	0.9989948040	1951.9763361979	-33.1385810242	13.6737591773	35.9597179111	2080.1062426398	-92.2020888142	0.0000000000	0.0000000000	0.0106666667	0.0100000000	1280	720	0.0000000000	-0.0000000000	20.8245919700	36.3001032238	0.9998313988	-0.0169740756	0.0070039034	0.0172679100	0.9988701078	-0.0442755800	
#timeindex 209
-2.1111234314	0.6654231853	-39.4943079196	-0.0037510918	0.0433978965	0.9990508255	1951.9415050571	-36.6271779831	8.9199208166	39.4448194126	2080.1303801206	-90.2109476943	0.0000000000	0.0000000000	0.0106666667	0.0100000000	1280	720	0.0000000000	0.0000000000	20.8245919700	36.3001032238	0.9998135578	-0.0187609870	0.0045689165	0.0189414609	0.9988816987	-0.0433194311	
#timeindex 210
-2.1522176443	0.6718288243	-39.7613802385	-0.0013424515	0.0433590963	0.9990586502	1951.9654840240	-36.1927724178	4.1936526589	38.7632377058	2080.1425403112	-90.2259971039	0.0000000000	0.0000000000	0.0106666667	0.0100000000	1280	720	0.0000000000	0.0000000000	20.8245919700	36.3001032238	0.9998258402	-0.0185384780	0.0021480515	0.0186141643	0.9988875380	-0.0433266578	
#timeindex 211
-2.1898038309	0.6884477915	-39.9995544910	-0.0002761967	0.0470806293	0.9988910541	1951.9974206636	-34.6137259445	2.1711788713	36.9893991088	2079.8222516293	-98.0178205449	0.0000000000	0.0000000000	0.0106666667	0.0100000000	1280	720	0.0000000000	0.0000000000	20.8245919700	36.3001032238	0.9998421986	-0.0177296668	0.0011121102	0.0177623644	0.9987337349	-0.0470683030	
#timeindex 212
-2.2399319496	0.6955165299	-40.2443445295	-0.0019214390	0.0541891890	0.9985288378	1952.0561227639	-30.7283165455	5.4238787805	33.0421608526	2079.1410700754	-112.7693819050	0.0000000000	0.0000000000	0.0106666667	0.0100000000	1280	720	0.0000000000	0.0000000000	20.8245919700	36.3001032238	0.9998722667	-0.0157395021	0.0027781916	0.0158668947	0.9984066305	-0.0541520247	
#timeindex 213
-2.2877758028	0.7077773819	-40.4118363797	-0.0089912794	0.0613459532	0.9980760647	1952.0560058726	-24.6820475434	19.1023764101	27.5268419954	2078.3702732957	-127.4974008116	0.0000000000	0.0000000000	0.0106666667	0.0100000000	1280	720	0.0000000000	0.0000000000	20.8245919700	36.3001032238	0.9998722068	-0.0126425130	0.0097845222	0.0132184304	0.9980364928	-0.0612244413	
#timeindex 214
-2.3238915449	0.7196788605	-40.7164971830	-0.0164521382	0.0716287368	0.9972956689	1951.9008845680	-21.0520597870	33.7120441399	24.9705377966	2076.9887290894	-148.7635662421	0.0000000000	0.0000000000	0.0106666667	0.0100000000	1280	720	0.0000000000	0.0000000000	20.8245919700	36.3001032238	0.9997927514	-0.0107831791	0.0172678119	0.0119908893	0.9973730732	-0.0714364855	
#timeindex 215
-2.3626598624	0.7075798074	-40.9373773081	-0.0200554557	0.0807185076	0.9965351480	1951.7959746548	-18.1315926843	40.7489016634	22.7818239228	2075.5738968492	-167.6612488925	0.0000000000	0.0000000000	0.0106666667	0.0100000000	1280	720	-0.0000000000	0.0000000000	20.8245919700	36.3001032238	0.9997390150	-0.0092872723	0.0208721953	0.0109398657	0.9966936686	-0.0805111808	
#timeindex 216
-2.4025981405	0.6794116735	-41.2076760670	-0.0210532020	0.0843657658	0.9962124172	1951.7782316585	-15.6792399146	42.5752296349	20.4925283722	2074.9675253040	-175.2887114958	0.0000000000	0.0000000000	0.0106666667	0.0100000000	1280	720	0.0000000000	0.0000000000	20.8245919700	36.3001032238	0.9997299267	-0.0080311406	0.0218076678	0.0098405426	0.9964024881	-0.0841738997	
#timeindex 217
-2.4177330726	0.6525026550	-41.4279383465	-0.0200893064	0.0857079648	0.9961177463	1951.8178457109	-15.6922803938	40.7136809860	20.3955687636	2074.7288568809	-178.1024939850	0.0000000000	0.0000000000	0.0106666667	0.0100000000	1280	720	0.0000000000	0.0000000000	20.8245919700	36.3001032238	0.9997502176	-0.0080378201	0.0208541548	0.0097939824	0.9962878792	-0.0855250822	
#timeindex 218
-2.4415209067	0.6385205286	-41.6669916695	-0.0191313664	0.0876254571	0.9959697636	1951.8585143585	-15.3677968036	38.8448846872	19.9569725083	2074.3842335324	-182.1210533788	0.0000000000	0.0000000000	0.0106666667	0.0100000000	1280	720	0.0000000000	0.0000000000	20.8245919700	36.3001032238	0.9997710487	-0.0078716148	0.0198969294	0.0095833678	0.9961223905	-0.0874548004	
#timeindex 219
-2.4654261456	0.6257772075	-41.8958809500	-0.0197713931	0.0872058008	0.9959940965	1951.8071196443	-17.9051565820	40.3128688213	22.7722093470	2074.4377709929	-181.1785526016	0.0000000000	0.0000000000	0.0106666667	0.0100000000	1280	720	0.0000000000	0.0000000000	20.8245919700	36.3001032238	0.9997447236	-0.0091712883	0.0206488528	0.0109352488	0.9961480993	-0.0870022101	
#timeindex 220
-2.4886654502	0.6182040696	-42.1427419811	-0.0203809912	0.0833161271	0.9963147285	1951.7482861691	-20.9388321097	41.6766969041	25.9562749921	2075.0986412464	-172.9977111095	0.0000000000	0.0000000000	0.0106666667	0.0100000000	1280	720	0.0000000000	0.0000000000	20.8245919700	36.3001032238	0.9997145882	-0.0107251822	0.0213474259	0.0124642418	0.9964654502	-0.0830737579	
#timeindex 221
-2.5102764370	0.6191991880	-42.3816071963	-0.0204085289	0.0769021623	0.9968297494	1951.6992817100	-24.7719525661	41.8690632533	29.7741234847	2076.1241514428	-159.5566248382	0.0000000000	0.0000000000	0.0106666667	0.0100000000	1280	720	0.0000000000	0.0000000000	20.8245919700	36.3001032238	0.9996894874	-0.0126885637	0.0214459588	0.0142975783	0.9969579017	-0.0766193283	
#timeindex 222
-2.5296986022	0.6150547893	-42.6445941128	-0.0181098629	0.0702954811	0.9973618091	1951.6918401970	-31.2841193416	37.6433142036	36.1042567955	2077.0395944064	-145.7371369028	0.0000000000	0.0000000000	0.0106666667	0.0100000000	1280	720	0.0000000000	0.0000000000	20.8245919700	36.3001032238	0.9996856757	-0.0160241926	0.0192814671	0.0173373177	0.9973974988	-0.0699831896	
#timeindex 223
-2.5518186779	0.6179787757	-42.8626438396	-0.0145388860	0.0646193940	0.9978040663	1951.6789982008	-38.5846586164	30.9364901074	43.1989616069	2077.6992241261	-133.9256918784	0.0000000000	0.0000000000	0.0106666667	0.0100000000	1280	720	0.0000000000	0.0000000000	20.8245919700	36.3001032238	0.9996790979	-0.0197636377	0.0158461317	0.0207442055	0.9977142540	-0.0643113162	
#timeindex 224
-2.5652965562	0.6203407904	-43.1135782571	-0.0120608839	0.0591821074	0.9981743401	1951.6200749680	-44.5879935538	26.2249524584	49.1292149287	2078.2649350160	-122.6274328476	0.0000000000	0.0000000000	0.0106666667	0.0100000000	1280	720	0.0000000000	0.0000000000	20.8245919700	36.3001032238	0.9996489165	-0.0228386355	0.0134328119	0.0235919220	0.9979859092	-0.0588858754	
#timeindex 225
-2.5786860698	0.6274905127	-43.3393111360	-0.0118290998	0.0556220619	0.9983818201	1951.4541608231	-51.4589472889	25.9882525183	56.3426108188	2078.5106927884	-115.1308704638	0.0000000000	0.0000000000	0.0106666667	0.0100000000	1280	720	0.0000000000	0.0000000000	20.8245919700	36.3001032238	0.9995639328	-0.0263580405	0.0133115706	0.0270558054	0.9981039224	-0.0552860150	
#timeindex 226
-2.5935182914	0.6401918843	-43.5903657049	-0.0130591547	0.0539026492	0.9984607969	1951.3283722139	-54.8014630707	28.4804802870	60.0024382139	2078.6099333125	-111.4305151479	0.0000000000	0.0000000000	0.0106666667	0.0100000000	1280	720	0.0000000000	0.0000000000	20.8245919700	36.3001032238	0.9994995020	-0.0280701269	0.0145881269	0.0288132600	0.9981515779	-0.0535090989	
#timeindex 227
-2.6167056994	0.6588212749	-43.8043680010	-0.0149705373	0.0540587200	0.9984255294	1951.2655006453	-54.9609910330	32.2333643132	60.3914143838	2078.5875640758	-111.6374610126	0.0000000000	0.0000000000	0.0106666667	0.0100000000	1280	720	-0.0000000000	0.0000000000	20.8245919700	36.3001032238	0.9994672983	-0.0281518395	0.0165104101	0.0290000469	0.9981408361	-0.0536084746	
#timeindex 228
-2.6389362019	0.6757947552	-44.0433465725	-0.0175629660	0.0564961102	0.9982483317	1951.1819339942	-54.6395686340	37.4210143240	60.4351999808	2078.3160901130	-116.5595270399	0.0000000000	0.0000000000	0.0106666667	0.0100000000	1280	720	-0.0000000000	-0.0000000000	20.8245919700	36.3001032238	0.9994244942	-0.0279872022	0.0191676018	0.0290210728	0.9980104739	-0.0559720580	
#timeindex 229
-2.6592595915	0.6907620924	-44.2626794995	-0.0195438095	0.0586768639	0.9980857003	1951.1975318463	-51.2434875990	41.2195465090	57.1349609873	2078.1524714462	-121.0545695876	0.0000000000	0.0000000000	0.0106666667	0.0100000000	1280	720	0.0000000000	-0.0000000000	20.8245919700	36.3001032238	0.9994324836	-0.0262476788	0.0211132666	0.0274362931	0.9979319040	-0.0581305841	
#timeindex 230
-2.6818812714	0.7027390589	-44.5118662516	-0.0207562768	0.0615689327	0.9978869893	1951.1653287021	-50.4118644725	43.6950604780	56.5286420308	2077.8127385003	-127.0237911542	0.0000000000	0.0000000000	0.0106666667	0.0100000000	1280	720	0.0000000000	-0.0000000000	20.8245919700	36.3001032238	0.9994159887	-0.0258217090	0.0223812618	0.0271451379	0.9977687637	-0.0609970132	
#timeindex 231
-2.7051319832	0.7146605405	-44.7349686496	-0.0239608888	0.0621942707	0.9977764021	1950.9355664954	-53.2022942479	50.1665784067	59.9510053282	2077.6528063888	-128.0663899241	0.0000000000	0.0000000000	0.0106666667	0.0100000000	1280	720	-0.0000000000	0.0000000000	20.8245919700	36.3001032238	0.9992983011	-0.0272510088	0.0256960698	0.0287885618	0.9976919641	-0.0614976707	
#timeindex 232
-2.7223145025	0.7180169593	-44.9971625724	-0.0292575020	0.0579974112	0.9978879190	1950.4422803312	-59.9247518788	60.6686865489	67.5379335550	2077.9709892923	-118.7918446434	0.0000000000	0.0000000000	0.0106666667	0.0100000000	1280	720	-0.0000000000	0.0000000000	20.8245919700	36.3001032238	0.9990456325	-0.0306943519	0.0310754063	0.0324318160	0.9978447560	-0.0570440203	
#timeindex 233
-2.7396044944	0.7255439160	-45.2306811148	-0.0311679862	0.0557559540	0.9979578299	1950.1137390204	-66.1787254690	64.6029062647	74.2886121821	2078.0211386936	-113.7789805093	0.0000000000	0.0000000000	0.0106666667	0.0100000000	1280	720	0.0000000000	0.0000000000	20.8245919700	36.3001032238	0.9988773488	-0.0338977304	0.0330905723	0.0356735019	0.9978688378	-0.0546368355	
#timeindex 234
-2.7569288495	0.7258768040	-45.4681349446	-0.0284218202	0.0613741934	0.9977100824	1950.2308911637	-67.3231593381	59.6977192725	75.5550871652	2077.2925237051	-125.6324278419	0.0000000000	0.0000000000	0.0106666667	0.0100000000	1280	720	-0.0000000000	0.0000000000	20.8245919700	36.3001032238	0.9989373558	-0.0344839265	0.0305780624	0.0362816651	0.9975189558	-0.0603288785	
#timeindex 235
-2.7806920949	0.7207180175	-45.6677886112	-0.0229434760	0.0678541451	0.9974314071	1950.6125915011	-64.6529229653	49.2673497182	72.3518398141	2076.5148012122	-139.5987062448	0.0000000000	0.0000000000	0.0106666667	0.0100000000	1280	720	0.0000000000	0.0000000000	20.8245919700	36.3001032238	0.9991328685	-0.0331161916	0.0252354715	0.0347434610	0.9971454923	-0.0670355061	
#timeindex 236
-2.7978408306	0.7165628134	-45.9015579917	-0.0195637107	0.0714284675	0.9972538469	1951.0826001303	-54.7092409623	42.1940841940	61.4110504386	2076.3201083234	-147.5120260153	0.0000000000	0.0000000000	0.0106666667	0.0100000000	1280	720	0.0000000000	-0.0000000000	20.8245919700	36.3001032238	0.9993736139	-0.0280228894	0.0216124394	0.0294896776	0.9970520005	-0.0708354940	
#timeindex 237
-2.8333203457	0.7105915102	-46.0861025388	-0.0220780389	0.0722433923	0.9971426440	1951.3104506987	-41.7950198541	46.2326251511	48.0166381655	2076.5392936083	-149.3829699913	0.0000000000	0.0000000000	0.0106666667	0.0100000000	1280	720	0.0000000000	-0.0000000000	20.8245919700	36.3001032238	0.9994903223	-0.0214080327	0.0236810403	0.0230576610	0.9971572536	-0.0717339241	
#timeindex 238
-2.8987619430	0.7275850354	-46.2740030351	-0.0275722493	0.0726118375	0.9969790831	1951.1320720090	-37.0196372807	56.6563178501	43.7565049377	2076.5866733504	-150.0315416916	0.0000000000	0.0000000000	0.0106666667	0.0100000000	1280	720	0.0000000000	-0.0000000000	20.8245919700	36.3001032238	0.9993989541	-0.0189620105	0.0290202112	0.0210119387	0.9971800054	-0.0720453692	
#timeindex 239
-2.9380220247	0.7082146582	-46.4693421272	-0.0312744337	0.0725530599	0.9968740960	1950.9079525996	-37.0359175761	63.9003568988	44.3267341624	2076.5952523984	-149.7451352064	0.0000000000	0.0000000000	0.0106666667	0.0100000000	1280	720	0.0000000000	-0.0000000000	20.8245919700	36.3001032238	0.9992841568	-0.0189703495	0.0327307161	0.0212857636	0.9971841251	-0.0719078364	
#timeindex 240
-2.9536808995	0.6740187868	-46.7228461110	-0.0340947875	0.0693854352	0.9970071248	1950.7509611789	-35.7624026175	69.1989330666	43.1538861798	2077.0900585381	-143.0766857078	0.0000000000	0.0000000000	0.0106666667	0.0100000000	1280	720	-0.0000000000	0.0000000000	20.8245919700	36.3001032238	0.9992037435	-0.0183180361	0.0354447258	0.0207225603	0.9974217317	-0.0687056370	
#timeindex 241
-2.9622845854	0.6364661552	-46.9710229404	-0.0365534070	0.0627291895	0.9973609664	1950.6086540969	-34.5841874224	73.6652350952	41.7214710173	2078.0305574103	-129.1689919770	0.0000000000	0.0000000000	0.0106666667	0.0100000000	1280	720	0.0000000000	0.0000000000	20.8245919700	36.3001032238	0.9991308517	-0.0177145367	0.0377324323	0.0200347124	0.9978733607	-0.0620271418	
#timeindex 242
-2.9622681136	0.6364926169	-46.9712354297	-0.0365534293	0.0627296604	0.9973609359	1950.6086339090	-34.5850762026	73.6653523889	41.7224602767	2078.0304789314	-129.1699349841	0.0000000000	0.0000000000	0.0106666667	0.0100000000	1280	720	0.0000000000	0.0000000000	20.8245919700	36.3001032238	0.9991308413	-0.0177149920	0.0377324924	0.0200351874	0.9978733230	-0.0620275947	
#timeindex 243
-2.9622681136	0.6364926169	-46.9712354297	-0.0365534293	0.0627296604	0.9973609359	1950.6086339090	-34.5850762026	73.6653523889	41.7224602767	2078.0304789314	-129.1699349841	0.0000000000	0.0000000000	0.0106666667	0.0100000000	1280	720	0.0000000000	0.0000000000	20.8245919700	36.3001032238	0.9991308413	-0.0177149920	0.0377324924	0.0200351874	0.9978733230	-0.0620275947	
#timeindex 244
-2.9622681136	0.6364926169	-46.9712354297	-0.0365534293	0.0627296604	0.9973609359	1950.6086339090	-34.5850762026	73.6653523889	41.7224602767	2078.0304789314	-129.1699349841	0.0000000000	0.0000000000	0.0106666667	0.0100000000	1280	720	0.0000000000	0.0000000000	20.8245919700	36.3001032238	0.9991308413	-0.0177149920	0.0377324924	0.0200351874	0.9978733230	-0.0620275947	
#timeindex 245
-2.9622688017	0.6364925842	-46.9712330524	-0.0365534259	0.0627296592	0.9973609361	1950.6086338500	-34.5850916918	73.6653466780	41.7224762874	2078.0304787926	-129.1699320460	0.0000000000	0.0000000000	0.0106666667	0.0100000000	1280	720	0.0000000000	0.0000000000	20.8245919700	36.3001032238	0.9991308413	-0.0177149999	0.0377324895	0.0200351951	0.9978733229	-0.0620275933	
#timeindex 246
-2.9622681136	0.6364926169	-46.9712354297	-0.0365534293	0.0627296604	0.9973609359	1950.6086339090	-34.5850762026	73.6653523889	41.7224602767	2078.0304789314	-129.1699349841	0.0000000000	0.0000000000	0.0106666667	0.0100000000	1280	720	0.0000000000	0.0000000000	20.8245919700	36.3001032238	0.9991308413	-0.0177149920	0.0377324924	0.0200351874	0.9978733230	-0.0620275947	
#timeindex 247
-2.9622688017	0.6364925842	-46.9712330524	-0.0365534259	0.0627296592	0.9973609361	1950.6086338500	-34.5850916918	73.6653466780	41.7224762874	2078.0304787926	-129.1699320460	0.0000000000	0.0000000000	0.0106666667	0.0100000000	1280	720	0.0000000000	0.0000000000	20.8245919700	36.3001032238	0.9991308413	-0.0177149999	0.0377324895	0.0200351951	0.9978733229	-0.0620275933	
#timeindex 248
-2.9622688017	0.6364925842	-46.9712330524	-0.0365534259	0.0627296592	0.9973609361	1950.6086338500	-34.5850916918	73.6653466780	41.7224762874	2078.0304787926	-129.1699320460	0.0000000000	0.0000000000	0.0106666667	0.0100000000	1280	720	-0.0000000000	0.0000000000	20.8245919700	36.3001032238	0.9991308413	-0.0177149999	0.0377324895	0.0200351951	0.9978733229	-0.0620275933	
#timeindex 249
-2.9622688017	0.6364925842	-46.9712330524	-0.0365534259	0.0627296592	0.9973609361	1950.6086338500	-34.5850916918	73.6653466780	41.7224762874	2078.0304787926	-129.1699320460	0.0000000000	0.0000000000	0.0106666667	0.0100000000	1280	720	0.0000000000	0.0000000000	20.8245919700	36.3001032238	0.9991308413	-0.0177149999	0.0377324895	0.0200351951	0.9978733229	-0.0620275933	
#timeindex 250
-2.9622688017	0.6364925842	-46.9712330524	-0.0365534259	0.0627296592	0.9973609361	1950.6086338500	-34.5850916918	73.6653466780	41.7224762874	2078.0304787926	-129.1699320460	0.0000000000	0.0000000000	0.0106666667	0.0100000000	1280	720	0.0000000000	0.0000000000	20.8245919700	36.3001032238	0.9991308413	-0.0177149999	0.0377324895	0.0200351951	0.9978733229	-0.0620275933	
#
# 3D Feature Points
# X		Y		Z
-12.6900247155	2.1513777201	47.6385941750
-25.6907854502	-12.9942502301	157.0480867604
-16.0870475156	3.3938010214	114.5601683684
11.9590875292	2.0918694392	182.9020833338
14.7114764234	6.5205747098	175.6668736283
12.8803822843	4.2178186556	108.5667637528
-18.5545614494	6.2079706226	120.2402258843
21.2041521594	-1.3161111675	177.7314762701
-24.2391945776	5.6965797116	125.6410155683
26.0989496396	5.3778006805	109.5809046588
14.7367236838	-0.3150268962	160.9455170782
-10.0074744806	5.0246307586	168.6234544552
10.7499184492	3.0215489830	95.3104457406
10.6189864466	6.0334908704	127.6161938006
-22.6465789043	3.5601875942	122.6411005098
-23.5022514877	-0.0618565527	129.5732128833
26.2862844295	0.8363043773	108.0151881688
-15.7833638032	3.5569706489	116.6477347246
17.0896334890	4.7205547167	110.7163043443
20.2728083685	-0.8839734645	123.2859929280
11.9885148520	5.0568332919	104.8772145353
37.7254947149	0.3437277559	180.0496378650
6.9712166820	1.9776966302	147.6834592356
-24.2857595469	5.3894804894	119.5023681081
-16.7479656746	2.7873564973	77.4986293430
-3.3568794975	-32.8532096002	245.5432971196
40.3712040798	2.3098744938	180.8065073491
30.2223664518	-25.8081235824	259.7243135738
8.8380458787	7.2490755942	45.7251964464
-20.3599437876	5.5848914216	119.9188485104
-12.3037616005	-34.2939354367	255.3123554275
73.0443761848	-26.3493032094	277.4593995132
-13.1954713342	7.2244127330	49.8230668454
17.0699700427	5.8609789787	117.9768409512
-11.7551704303	5.3546626513	179.5579201165
-24.0788560919	-32.9382013899	243.5428390751
38.2469689478	1.0268917596	177.7199179539
-4.9690058119	4.3831201756	167.4628478137
1.6055229947	-34.9967854579	256.9519456240
-3.6004479491	-26.6834634398	259.7992796573
-28.1990838744	3.3870756574	119.4110852833
-14.5753852955	4.1883196231	53.8042859924
-4.8812235569	4.2955174385	199.4544561454
-6.0948362585	3.8915664319	168.2086911916
6.4368053629	7.4514583340	48.0394609500
13.3357871517	1.3460968045	202.6963811466
-38.7130179568	-22.9492053781	224.3370142333
-19.6826492565	-34.7378326263	251.3459575225
13.4691357274	5.3916717964	112.7872284726
-18.7532969826	3.2795173210	131.5370964848
-19.6695170242	0.8018374622	108.3327669512
5.3820689558	-23.6423268385	235.6099436684
-19.5248499350	3.3404126134	114.3401978916
-16.9661544352	6.7523614164	130.8445749885
66.7806423553	-35.2279730762	276.2161501464
-5.7436994659	-31.9513943335	240.4691580147
7.2607105409	-30.7200085899	231.1114688400
-7.0094541615	5.5192875088	182.7974244179
-16.0593962857	6.9734295200	72.3649525935
10.3761249053	4.5704186946	150.3012479455
16.7151139345	4.9861811621	134.9768069659
-25.7411100197	3.9991116936	125.4182998963
-32.8139967957	-33.1073872792	244.1249507049
11.0709400383	5.8115862356	120.8959976094
-11.0389630813	-6.5832922408	105.3152027858
-20.5016926249	3.4044310518	115.2332131939
16.4096547647	-7.5530521815	142.9580334813
-15.4390943659	6.9783041355	72.1259920522
18.7164720429	-33.2400754738	253.0142070487
-15.7149895287	-7.9528976834	128.2953246360
-13.0014444434	6.1438180358	73.2581699896
-8.2547534286	4.3313366328	182.8798737684
17.0009335427	1.4255274238	104.3531395213
-23.9460660621	3.6280363435	125.9870562569
-23.4381255059	5.6649132117	124.8396601265
-19.9931084047	3.2087924570	126.5866286507
11.8475951994	3.1362565813	100.3804917602
7.0678826388	7.5433441530	47.1434238860
-47.7723042683	-9.8357607288	152.5214914065
-40.2254130025	-27.9513214110	244.3059271665
-10.7083614534	4.5239863194	184.8533174884
16.8220977256	5.4135009370	108.7763425029
27.5181577423	-21.2572257907	220.9943871822
18.4587244094	-25.4260575862	251.8177991955
-16.4878507093	5.9396195915	118.6206893940
20.6551576298	5.3753361424	115.0768179960
23.1694211866	-35.0314980447	262.6846073573
-24.5068769559	4.9503122974	126.6923879537
-22.7657692940	4.2628769460	111.4552468619
9.1505362438	7.3357193070	45.8630058004
10.1987690651	3.5963563840	110.4184380336
26.7581290709	5.6674795475	115.7507663953
-0.3996931940	0.7572967482	65.9725725379
18.7405607074	5.2182390343	131.1114466862
26.7765811626	6.4944627451	111.5575250769
-13.8196336644	7.1771403759	49.3883025671
-25.4256643252	-26.6177593433	257.4658840469
3.8417541424	-32.4384136488	246.0046058132
16.2025483552	-32.8119976095	251.7228530406
-48.5505896295	0.1685330545	236.8828304092
11.8290929232	3.5106430630	119.5996646069
25.5765895386	2.0641863404	110.3326247020
17.9362264073	5.3299703525	131.2831798663
-32.2468278182	3.7679847881	141.8218890660
-23.2368450848	4.8291737971	123.7529873729
10.5543220536	3.1911897712	54.5928425120
9.9624667774	2.3106681278	186.4501566008
-186.7778666832	-0.7750631702	882.7861113190
-20.7986655988	4.0019563650	131.9781131918
14.0853746437	-0.1279984037	231.8933894958
64.9498523474	-25.7675921272	268.1422165812
23.6976757561	-26.7680498025	265.9530935077
-12.1967248485	-26.0942142911	253.8884261932
24.4487175973	6.5745182181	107.0413897168
10.8314630531	4.9534709311	136.9228889503
-26.7349204098	-34.0396890691	245.2511582283
-36.5334284421	-22.7829837113	224.7842103837
-16.8086750411	-33.7902508899	245.2938110526
-20.1651920338	6.3740795503	111.0160413670
-6.3089646846	-25.3869824356	247.4852338659
-25.2937312119	-0.7176830001	254.2482318310
-33.9976999412	-0.7500151655	251.4819980471
-44.2422862192	-33.3162296300	244.4776405974
23.6298610516	1.8128722143	116.0552108982
40.4303348899	2.1081577934	185.4020619727
-2.4797786889	-6.2182540131	181.6810004037
29.6962797235	-32.9387582977	253.7207575860
-57.0006021480	-0.0754448949	250.8667150310
-19.2511719248	2.3096535936	116.5444552304
25.2036861920	-33.4001367495	258.2173526218
17.5965873734	4.7110381170	133.9972258010
-19.1066053695	-25.2009120415	242.1172011037
-1.9641499172	4.5088629126	144.3553736753
-16.6255688637	2.2694829613	118.9965848067
37.3596889570	-0.5466445992	186.2108371034
6.7292011480	-5.6188097856	90.9401808758
-38.0939694894	-0.0041170087	223.6937907305
-37.4507390984	-32.6165621719	241.8786235221
104.3829362792	-12.5173995145	-341.3462943422
-11.5012609709	3.6709402664	212.9470738346
-13.4754690100	6.7103405169	63.7435845801
23.5398616830	-24.3368634324	241.8161372080
-15.6147922632	6.6319523593	73.4531727365
44.2897323612	1.3040330694	165.6117380797
-44.3907169518	-25.6053999585	245.0229352777
-14.9932771298	5.2341009234	175.4047233421
1.8294275901	-27.9797169210	273.1388651727
42.2547898751	1.1358114389	162.7539658003
20.5104292897	5.3279317680	121.2757988073
-16.0559304080	6.2528804991	131.0327044213
-13.8071424164	6.6498105413	62.9663316296
33.6274624248	-2.4211023919	192.1289236377
-16.2495810231	4.6906227242	196.7721784965
8.6749234373	2.6760158736	40.9159138186
7.4228689867	0.9933101730	159.8654346619
27.4305399232	0.1245064142	157.0440815603
-12.5572974700	1.8304828054	47.1383856302
-18.0976421942	5.8074424765	125.1886519808
18.8072537135	5.9592358493	117.6053893516
-38.0683901236	-0.6115433639	231.1819245987
-12.6922847415	7.1871684684	48.9700872028
9.8923335706	2.7010735660	47.0881581217
46.4616095876	1.2029266540	158.8875670929
-13.6214294218	6.9889361405	57.7142092937
-15.4242442532	3.4850849363	123.8367865123
24.0608040766	0.7061246144	167.2240973163
65.8738260317	-25.2669836266	263.7210745819
17.3643086351	-6.7240433824	132.9549630087
-24.4682704648	-8.4737778817	244.7566609938
-17.5754813771	-26.4294466709	254.5149295013
-39.0314050273	-26.3051836660	251.3967323255
-39.2469118220	-27.8975304593	249.3811886727
-85.0815540212	-28.8902178321	276.2945684709
9.2763646640	2.3883088275	48.4536354514
24.6140858891	-1.4011995081	176.7974871696
23.9910200412	5.6312873933	103.8407166761
-5.6887866419	-8.9343196643	237.1233376945
-26.8246952823	-25.5900895897	244.7441209448
-40.8765613853	-34.6137573206	248.5654372819
-1.1841434281	1.3143681930	-59.3358481320
-12.6450070146	7.2467443545	60.5689590038
-12.8997712885	6.8956720266	72.6751710297
-14.1174871902	6.5587346314	62.0653290170
-3.8907668050	4.6441397298	162.0375113511
-19.9767436158	1.9899382572	82.5993057599
-12.7016929153	3.6412159967	176.8710970481
-17.0348612729	3.1896712203	53.3438520733
4.1504181427	-27.3634308761	266.8985985676
72.0472097973	-33.7861862872	273.5992906522
-13.0187400676	4.6947529665	57.1856752964
13.3748131871	3.3881147897	108.4863332595
-18.5876793451	5.9909254308	110.7666555347
-14.2946104373	7.6461278724	63.4661904582
-12.6043765373	2.3725886615	47.8013540756
9.4198158768	-30.0940900160	296.1850164787
-13.9110828502	5.0918004755	213.4361412673
-18.8828503219	4.6319697817	131.0708590891
16.2210057116	-26.2831012641	260.9685654520
23.9551435403	6.0162994456	105.8775535947
6.8821132283	7.6521684453	49.1877075671
-79.2873353007	-33.6033920344	329.7486203807
-46.6298469100	-34.1729304250	244.5850648791
11.6234130162	2.7757635873	104.4625717023
82.2333224257	-35.4428230035	282.2821942233
-15.0297403319	3.3144559592	69.8089591132
19.4788496474	5.2025319213	118.7274312211
43.1255375873	-14.3335397636	199.6054998064
45.5473661130	-32.7477989458	258.8872839316
-7.6965482352	3.9955251495	149.9439498847
-15.1558157016	7.1347634206	73.2290060812
-11.3894385656	6.2046033161	62.1176188670
870.0072713052	200.3189902649	-3096.8859610363
-35.8269441719	2.5065851016	213.2516074176
-3.2095708226	4.6672396379	170.5263393154
-4.8263313968	-6.6051655223	201.0994619652
17.6143119598	-9.5919666175	106.8239463456
-27.3955537664	3.3801319079	129.2827129327
-13.9229417654	7.0569955254	72.3750889621
-27.3743234066	-8.3088939829	249.6140692316
-16.1746854544	3.4248447317	124.7278734591
-13.3826402983	5.0816389597	47.2834750080
22.0920384638	1.6860429408	124.1497906604
22.1293459245	-2.3796815442	160.0199044535
-27.6474043544	-0.7826555826	250.8454440631
41.6390836202	-0.5990569827	141.8682218794
20.3381108442	5.8436274093	113.3032693406
16.5996033884	-4.2360059270	150.3280010283
-38.4542764784	-25.1844174449	236.6573681579
-12.3330485551	4.9090654347	58.1665366825
-12.8852135475	3.5466512001	50.0082923303
-19.4110466339	-32.8266749620	246.1187248816
-13.6226758965	2.0517590848	53.6244235162
5.6346801967	3.2890578838	123.8529234168
-12.8152696765	2.9009014848	46.7662245817
14.3491313385	5.5693109541	116.0204235332
51.9160015879	-0.5954011840	181.9844495959
23.8012188119	4.1999158742	109.7772026660
11.4559775823	-9.5397880056	135.6518984690
48.8881177871	3.8326604074	218.8457000030
16.7921776984	-0.4928576974	173.6420069729
-27.1260048922	3.7468704247	152.3828289723
-12.3851274754	6.3069492052	69.9558099659
33.0186877382	-6.2246593981	195.4144321048
-12.8808883937	4.6827582484	75.2635719390
-11.3211104244	7.0524788912	59.1474621245
64.9214299409	-9.2586619134	267.9371859720
2.9102572766	4.0582841191	82.1333575742
2.3846864116	-36.7315016811	251.0538337256
-12.8970212930	3.6550678363	48.4981668223
-2.1145450239	4.0844813497	155.0196018138
24.0858384015	-37.7687838083	263.4496258771
20.2423007973	6.1764695077	119.9897480434
9.7407659173	1.2262688032	185.2850919368
-18.7786218664	5.5239846831	116.1164771283
15.0665342488	-5.7990570817	125.0114231836
-12.9780331638	5.2606248412	40.7226463281
-12.8966140649	3.9439936478	44.4985538399
-12.6812819846	6.5438651366	62.0399133966
-48.2919915506	-26.1263539899	249.9012979517
-18.0103160605	5.4844318556	117.8965727577
15.4755331607	-6.8419236237	142.1509059775
70.4239821830	-34.6734486417	281.7233779936
18.9425130120	-9.5358586275	164.2077987913
-12.6903059433	4.7987928980	58.1205508672
-18.2961275906	4.7965656946	85.0805075845
36.4093761931	1.1822724395	172.9675624770
32.0757334040	-0.7300877789	170.3085514540
39.5701539045	-24.2168350981	231.6808532738
-15.0803781020	4.3771803926	69.8696344078
16.0283019417	-5.7334226452	114.8013440794
47.4961670154	0.2482003386	175.7583169906
-14.5158382436	1.6024916836	56.9601927857
8.1141833248	7.2857917120	69.0954558790
-38.4356582660	6.1157882918	123.0855811538
-58.9943147086	-33.1696827985	244.2198452279
7.8751498275	7.2040006951	65.0412071512
-19.6513122247	5.8211938650	110.3987540492
-12.9538401674	5.5260463291	48.6917872411
28.7329417899	-0.6507598683	165.5195208554
-26.4852139788	-9.2363263730	241.4256919394
29.0462171924	-7.9859837089	156.3122839346
-67.1249374979	-0.2285910721	306.5098224690
12.2060334724	5.0150037658	124.6970447631
16.9424128813	-7.9072201177	242.1462942058
46.3263400254	-32.0486178209	272.9168382471
13.4920674323	3.5365659457	129.6889310223
26.1739156300	3.6890412139	106.9872850073
-26.1155916843	-32.0445835365	239.3260386861
9.6318657531	5.0010208907	140.6330147520
9.1067216374	1.8559476927	-29.8498627190
47.4308022242	-39.0319063511	279.7836184017
62.6015858640	-4.0258434979	226.6069768622
-15.5427910901	-7.1182293151	114.2911609327
-12.9064677395	4.0733124813	48.4258326327
26.5919641108	-6.5068235767	145.4143039273
75.9487625085	-34.4857699468	277.7331446000
25.4579609883	-5.2955778732	132.8615882133
-14.6589289243	7.0326515548	57.9746182985
-14.6211093415	6.0430421548	57.4265549445
6.6597127570	7.0644129544	90.7650789668
-61.6252312097	-22.5252496979	219.3029337278
-10.0599946745	-3.9849948219	38.9634495399
-7.9963319271	3.0007209106	202.9472493677
28.1116819874	-1.6053767382	152.3941048920
-55.8312890286	-33.9515716380	248.0108189802
45.9832076048	0.9221297607	165.6559204532
25.7089389268	32.7268007728	749.8307106236
11.9747462807	1.6330168409	200.3385051795
-14.0754178167	6.2859111608	59.4906780617
13.1562137892	-3.9221768670	216.8223834552
8.6897436749	5.1077000786	34.6760434459
-17.8011091277	-36.7271017587	248.4203296367
6.2544352474	7.5490184812	48.9706317583
-24.4156425709	-9.4167913452	89.8819911645
-13.5909888680	6.4206745658	118.2343010416
-17.3306120873	1.7343026004	124.2997504757
-36.5199575417	3.5514206263	129.4720212103
-16.2567543093	1.8199743463	59.4456365533
70.4565207829	-9.7595622238	281.9209009336
-62.3422186389	-34.3290299269	249.1249412861
-11.8382333482	3.0354416986	192.8240423886
10.3869160109	7.0556642750	57.2826917470
-25.4525754781	3.1114293047	116.4462109699
-36.5863654763	-8.2700579620	141.2578705965
4.6081849821	7.1703829492	64.7668041788
16.5650388047	-34.6319238623	256.0708661764
-12.6181146953	2.7429818956	45.0923427112
66.7205076070	-37.4090842702	273.6082763793
-2.2635632100	2.7721988880	165.4172484176
24.1196406912	0.2663865806	156.8099246001
-11.4205629546	6.0889139215	37.1564510585
-19.8586070788	5.0817998670	110.6375493990
-20.5613572783	4.2148600882	120.5882317633
-12.8312902186	6.6133274374	50.0362190164
-2.8835688479	-2.7859410728	247.3784022780
18.8664433894	-5.6692866031	205.0015450543
43.6767384854	-4.3022926350	217.3244606977
38.4810063897	-36.0709753969	277.4075014489
-11.1693372479	3.2387860309	250.7341382760
38.7515205581	-0.2640479909	199.4117394406
36.6931969337	0.3793747349	180.0884579928
24.6979783122	0.9410932342	122.2682425024
20.6728266767	-3.6378780705	204.3698654554
48.1970643960	-0.0979332391	184.5329454571
8.8228423757	7.2447445184	55.5999354355
-47.4852105893	-0.3804226968	251.6020191519
-11.4578731224	6.8032466455	59.6778151327
-38.4354835112	-0.7541267849	244.3111163690
-46.1107740908	-32.5994513125	241.8016742271
-31.6145198903	-0.8976777135	253.7533149611
-13.8373548483	4.7255164750	58.4403337251
38.5571300189	-34.3281322468	266.0889097794
16.0473665070	1.5243840029	148.0149328611
-2.2926840141	1.4042453501	126.7700028739
-69.0923421734	-33.8328710008	244.5138414896
22.4681942274	-6.1790655857	219.9159611236
-12.4387915952	1.6089240083	48.8798170313
4.8062325628	6.7595172723	87.4172291759
-12.5374396706	6.8366411091	64.4132377436
12.2094508218	-3.1343879667	220.4109293225
37.4508706354	-3.9557662319	199.4426508410
12.6351661408	4.6410855152	152.8273453485
22.4508564846	-9.1561230672	241.0122787585
-12.7585909426	7.0776434293	62.8341121724
-19.5343458229	0.9681329826	79.7764453642
4.1364252588	-35.0974717004	256.7840227910
-11.9664104219	7.1752856309	60.6947896990
-30.2991854596	4.3007186359	95.5757982458
81.4428895722	-33.7291901833	279.0954701229
21.9037344366	-0.7248123950	143.0025800050
-83.6793103318	-37.2963764887	271.7724208998
-12.9545900787	7.1966915334	59.7405121648
13.1670311885	0.3659789236	198.3048306741
78.7268858669	-6.0543368210	-262.3606743880
-12.1601222623	4.6927142378	66.5885793614
-18.7315526273	2.9813826713	122.6455929671
-9.7317693400	3.7291893905	199.3616968945
34.0104551472	-35.1129179422	266.3490610959
-20.3639958741	-8.9422392727	252.8269884295
66.5018554612	-5.9648872831	251.5214336350
24.9691776683	1.3835534607	105.8058501597
21.2231215518	-5.9206632208	218.8491496844
-5.5701603290	-11.5239695655	227.5911357146
15.2665564547	-1.5838794674	202.0444121058
27.5841524002	-2.2176362841	180.8720634554
-22.4383771727	-9.2123224986	113.6901552311
-19.4716488021	-0.3891909660	248.3446511436
-65.9465626529	-33.2062864039	244.4475417753
17.2528364446	-14.6293300107	278.5225685831
-38.0109523896	-34.4560123098	246.5021798534
48.4023233933	-0.7636038467	162.1233290873
-38.9692685812	-36.7619665538	246.8697884616
9.9483475004	0.3182718328	187.3027505504
-12.2846271101	2.6405082494	47.7037125807
11.7458923446	1.8904732898	56.5831153520
67.5638511893	-11.7445385472	272.9360792979
9.7163701571	-9.1505659655	295.2895540333
-15.9514873566	1.5760122466	99.6716425374
8.8061431560	5.6942956876	137.3570918586
-36.1300503911	3.1517888600	115.9250541417
-21.1917334437	-8.9902196256	111.0374315915
9.5331718424	-9.8366587714	140.0872690076
-11.5614004855	5.4777709230	36.6175446979
15.9401119453	1.4089454663	139.0339734835
-11.3596582030	5.6100293590	61.7029763042
19.1020651005	-6.8776400922	150.4510374676
11.4079138019	-8.2411317261	135.9248216004
-56.6552232835	-26.2925342711	249.9234184079
-3.3284189787	-8.5510473846	203.7312864879
-14.8622898973	4.3341576409	117.9091529995
51.7621744216	-1.9162129918	208.9627133848
-12.5716192780	7.0750397603	73.1179985052
11.6610781759	-14.3234005192	269.8590824115
-26.0356343526	3.7990991137	122.8495647381
-14.7804096890	-2.5964093582	220.0913366628
-19.9176721213	4.2468481483	131.2608994012
-11.6340659333	3.3969655761	103.1236328171
31.2653406547	-2.1676561431	184.0881423303
-19.9326856882	2.8945176365	80.5109614073
6.6635858769	7.2440984713	72.3087203575
-30.4163220922	3.6359045985	125.5257946755
-14.4520566351	3.2941426646	122.5766058463
21.6133837740	-1.0485312222	135.6533219170
-8.7629086335	-6.2738551451	178.1277546521
41.3732256845	-2.6731987009	203.6648840003
20.9799001640	3.1142259886	105.9646646497
27.4420960401	-10.4791950758	190.8669447349
16.9808426090	-6.2362271398	242.6452546780
26.4596332805	4.5112530647	111.6596740068
-48.9571019640	-0.6293401827	249.1510409527
27.5820138615	-7.8091642459	153.0111583661
7.5857706382	7.3083704344	60.8430380359
-19.8129791574	-9.2876266433	113.0337563570
-38.0704357712	3.8277169909	222.9296922791
-13.5099968046	4.7671103729	76.6508988949
-13.8989270040	2.1120693962	118.0014387297
27.3783665704	0.9120339297	158.2005537460
-51.1291968247	-16.7471712499	218.6801686554
20.7973091487	-6.4290433759	129.6640777988
-11.7232051987	5.5989116191	61.0403238637
-9.0375743669	-33.9708910418	249.3684877902
-60.4777267190	-16.1855582782	271.0498931018
44.6745114329	0.2162476902	174.4552899346
11.5229626037	-35.5262189590	269.7672254906
-11.2320648484	4.5239485486	60.1434000178
48.0700007812	-0.8549583263	171.3131800639
22.5852634782	-1.4821016452	168.4174116424
-30.1044590676	-11.0792945615	134.2977613345
-16.0032364625	6.4246663514	116.8988649770
-43.1998075117	-26.3828210236	238.5439309501
21.1934206232	-7.7267690270	238.6200130910
-33.4165469071	1.4488884425	203.0355563225
5.3884529349	7.1702707191	79.6280586145
32.0985372197	-22.8017037613	237.4150573785
23.2716051792	-6.2102552356	153.0565767409
-13.0763114203	4.6354864127	49.1688287464
28.0241066843	-5.5652169407	151.9784137734
60.5996656736	-4.1974002056	236.9707038140
17.4425478402	-5.8980480251	147.5190148012
-48.6209978428	-11.4438940589	176.0782521030
29.8428509787	0.5918527199	154.9174430992
-123.8097245451	-48.2688065283	472.8080121425
-37.9799601706	-12.2960138009	155.8136931539
-5.3905886957	1.4246334201	235.0740076802
-17.1304521578	-3.0599762978	54.6984089718
-40.1066848272	5.8783425236	133.7385785264
23.6942825282	2.2886467370	120.2528174592
7.9292965044	5.8477538341	150.4172126925
-19.5994735345	6.4021458207	122.9171437458
15.4547659510	-8.9747643845	156.4851841760
-40.7916264972	-33.2041480366	247.1184967198
8.5491473279	7.2348425831	51.6811754406
-15.6509321840	0.8519019231	115.6754007756
-14.5406912870	3.9245051654	123.3738977418
21.8473715616	-6.5226529467	140.7671246425
5.3369862342	7.4517315432	77.4368076462
-19.1289666760	2.1305425762	107.4756255714
-10.6221658596	4.9237286713	57.5073910697
-9.0081953467	-24.5761505842	241.8265304438
23.5516095080	-2.4303164109	179.1404960521
80.2336038345	-27.1158320574	293.2711917998
18.5924753221	-8.2137799401	101.0369445321
-7.2812440904	-0.1529838391	279.0048469539
-15.0476185700	-2.7125516715	253.3267789163
27.6029127938	-6.0175784094	191.2492670001
7.1721449357	-16.6457557456	300.4807247776
-1.9179508209	-1.2166031006	190.1614675940
54.7514317583	-1.9270653701	185.3412820719
23.5881298422	3.6991131441	103.2506771316
28.7072516412	0.2116598916	157.8715487101
-1.5079349168	6.8599724117	91.6803889109
30.2291623367	-1.1477976899	168.6863281325
-8.1403061249	3.7634539214	294.0046598380
-61.3005034632	-37.0259298499	247.0395430675
-14.3712092471	3.8877990921	186.6763686273
23.0205688530	-7.6454654098	148.3810385836
-2.2159774913	3.8752009457	119.5970861907
-13.3893730874	1.1286525770	115.6699104749
10.9151944861	-6.8463748100	132.4974687798
-17.1180446719	6.1786338207	241.6665941617
-10.9756052239	7.2017004868	59.2080367823
-12.9982185972	-6.5858132953	213.1709025832
