# Text export 
# created by voodoo camera tracker - www.digilab.uni-hannover.de
# Creation date: Fri Jun 14 00:28:23 2019
# The camera (one line per frame) 
#
# Description of the CAHV camera model:
# -------------
# (Cx, Cy, Cz)    : CameraPosition [mm]
# (Ax, Ay, Az)    : RotationAxis2  [unit vector]
# (Hx, Hy, Hz)    : RotationAxis0 [pel] (including FocalLength, PixelSizeX, and Principal Point offset) 
# (Vx, Vy, Vz)    : RotationAxis1 [pel] (including FocalLength, PixelSizeY, and Principal Point offset) 
# (K3, K5)        : Radialdistortion;	K3 [1/(mm)^2]	K5 [1/(mm)^4]
# (sx, sy)        : PixelSize	[mm/pel]
# (Width, Height) : ImageSize	[pel]
# -------------
# (ppx, ppy)      : Principal Point offset [pel]
# f               : Focal Length [mm]
# fov             : Horizontal Field of View [degree] = (2*atan(0.5*Width*sx/f)*180/PI;
# (H0x, H0y, H0z) : RotationAxis0 [unit vector]
# (V0x, V0y, V0z) : RotationAxis1 [unit vector]
# -------------
# (x, y)          : image coordinates [pel]
# (X, Y, Z)       : 3D coordinates [mm]
# -------------
# Projection of 3D coordinates in the camera image:
#  [ x' ] =  [ Hx Hy Hz ] [ 1 0 0 -Cx] [ X ]
#  [ y' ] =  [ Vx Vy Vz ] [ 0 1 0 -Cy] [ Y ]
#  [ z' ] =  [ Ax Ay Az ] [ 0 0 1 -Cz] [ Z ]
#                                      [ 1 ]
# or 
#  [ x' ] =  [f/sx 0    ppx] [ H0x H0y H0z ] [ 1 0 0 -Cx] [ X ]
#  [ y' ] =  [0    f/sy ppy] [ V0x V0y V0z ] [ 0 1 0 -Cy] [ Y ]
#  [ z' ] =  [0    0    1  ] [ Ax  Ay  Az  ] [ 0 0 1 -Cz] [ Z ]
#                                                         [ 1 ]
# then x = x'/z' and y = y'/z' , if the origin of the image coordinates is in the center of the image
# or x = x'/z' + 0.5*(Width-1) and y = y'/z' + 0.5*(Height-1) , if the origin of the image coordinates is in the upper left corner
# -------------
# Cx Cy Cz Ax Ay Az Hx Hy Hz Vx Vy Vz K3 K5 sx sy Width Height ppx ppy f fov H0x H0y H0z V0x V0y V0z
#
#timeindex 1
-0.0114875021	0.0142597889	-0.0109246806	-0.0024932875	-0.0565644704	0.9983958354	977.5830012296	-1.3072980876	2.3672463254	1.2493855271	1041.0887460750	58.9863724696	0.0000000000	0.0000000000	0.0106666667	0.0100000000	640	360	0.0000000000	0.0000000000	10.4275919095	36.2503399927	0.9999961740	-0.0013372707	0.0024215205	0.0011981535	0.9983980531	0.0565675882	
#timeindex 2
-0.0375559491	0.0081044607	0.0872449817	-0.0009293008	-0.0576060592	0.9983389596	977.5858076421	-1.0509485598	0.8493410957	1.0669607449	1041.0269732898	60.0702320892	0.0000000000	0.0000000000	0.0106666667	0.0100000000	640	360	0.0000000000	0.0000000000	10.4275919095	36.2503399927	0.9999990447	-0.0010750438	0.0008688140	0.0010232091	0.9983388133	0.0576070032	
#timeindex 3
-0.0671413737	0.0003987966	0.1891278221	-0.0018542936	-0.0619528007	0.9980773578	977.5823969863	2.1654815950	1.9506328311	-2.4343096700	1040.7535710191	64.5972820858	0.0000000000	0.0000000000	0.0106666667	0.0100000000	640	360	0.0000000000	0.0000000000	10.4275919095	36.2503399927	0.9999955559	0.0022151299	0.0019953552	-0.0023344888	0.9980766222	0.0619484179	
#timeindex 4
-0.0986828937	-0.0091824485	0.2891143794	-0.0021722493	-0.0649157745	0.9978883823	977.5435103639	8.7883053831	2.6996685720	-9.5413321795	1040.5175216566	67.6681639422	0.0000000000	0.0000000000	0.0106666667	0.0100000000	640	360	0.0000000000	0.0000000000	10.4275919095	36.2503399927	0.9999557777	0.0089897960	0.0027615642	-0.0091500821	0.9978502522	0.0648933757	
#timeindex 5
-0.1341736758	-0.0177328020	0.3874601576	0.0026299350	-0.0658854996	0.9978237241	977.4372662747	17.0329306994	-1.4515322179	-18.0269092454	1040.3348379201	68.7399873309	0.0000000000	0.0000000000	0.0106666667	0.0100000000	640	360	0.0000000000	0.0000000000	10.4275919095	36.2503399927	0.9998470977	0.0174234469	-0.0014848117	-0.0172877011	0.9976750595	0.0659212481	
#timeindex 6
-0.1675135088	-0.0286252855	0.4865199547	0.0073940403	-0.0670188232	0.9977243134	977.2525626473	24.9454982481	-5.5666949720	-26.1500338829	1040.0744559281	70.0573490730	0.0000000000	0.0000000000	0.0106666667	0.0100000000	640	360	0.0000000000	-0.0000000000	10.4275919095	36.2503399927	0.9996581594	0.0255174269	-0.0056943233	-0.0250777304	0.9974253547	0.0671845903	
#timeindex 7
-0.2035247561	-0.0406741486	0.5774760744	0.0107339210	-0.0690728051	0.9975538735	977.2518290791	24.0066812455	-8.8531911534	-24.8922059936	1039.9534687338	72.2764917159	0.0000000000	0.0000000000	0.0106666667	0.0100000000	640	360	0.0000000000	0.0000000000	10.4275919095	36.2503399927	0.9996574090	0.0245570856	-0.0090561694	-0.0238714808	0.9973093287	0.0693127352	
#timeindex 8
-0.2321093078	-0.0577886949	0.6855619207	0.0150963877	-0.0690867266	0.9974964277	977.2650929138	21.2458782551	-13.3187088685	-21.6240444417	1040.0208037288	72.3592345082	0.0000000000	0.0000000000	0.0106666667	0.0100000000	640	360	0.0000000000	0.0000000000	10.4275919095	36.2503399927	0.9996709769	0.0217329853	-0.0136240686	-0.0207373329	0.9973739026	0.0693920851	
#timeindex 9
-0.2643907091	-0.0771067540	0.7872040204	0.0222609225	-0.0676735012	0.9974591463	976.9465026927	29.3041874405	-19.8149602934	-29.7480341863	1039.8990121296	71.2167770914	0.0000000000	0.0000000000	0.0106666667	0.0100000000	640	360	-0.0000000000	0.0000000000	10.4275919095	36.2503399927	0.9993450823	0.0299760484	-0.0202692605	-0.0285281918	0.9972571051	0.0682964751	
#timeindex 10
-0.2989585070	-0.0953941692	0.8753534416	0.0306042165	-0.0667702469	0.9972989101	976.2408412908	43.5711888120	-27.0408668121	-44.4245053431	1039.3935909816	70.9517910754	0.0000000000	0.0000000000	0.0106666667	0.0100000000	640	360	-0.0000000000	0.0000000000	10.4275919095	36.2503399927	0.9986232422	0.0445701511	-0.0276608363	-0.0426028423	0.9967724092	0.0680423550	
#timeindex 11
-0.3259186026	-0.1120352776	0.9794085947	0.0366083282	-0.0622922577	0.9973863369	975.7499658665	50.1988556349	-32.6789868426	-51.2341385248	1039.3557410326	66.7939887837	0.0000000000	0.0000000000	0.0106666667	0.0100000000	640	360	0.0000000000	0.0000000000	10.4275919095	36.2503399927	0.9981211124	0.0513497713	-0.0334282222	-0.0491332409	0.9967361113	0.0640550468	
#timeindex 12
-0.3533352198	-0.1234544906	1.0789503420	0.0379068763	-0.0577810903	0.9976093496	975.7139261466	49.8954797541	-34.1849762351	-50.9876820303	1039.6556596133	62.1538093816	0.0000000000	0.0000000000	0.0106666667	0.0100000000	640	360	0.0000000000	-0.0000000000	10.4275919095	36.2503399927	0.9980842464	0.0510394399	-0.0349687396	-0.0488968906	0.9970237315	0.0596051417	
#timeindex 13
-0.3817014186	-0.1329288651	1.1840457492	0.0353463740	-0.0593253756	0.9976127173	975.8212833854	49.4780719234	-31.6319532646	-50.6489346848	1039.5837833996	63.6158236071	0.0000000000	0.0000000000	0.0106666667	0.0100000000	640	360	-0.0000000000	-0.0000000000	10.4275919095	36.2503399927	0.9981940650	0.0506124621	-0.0323571832	-0.0485720338	0.9969548026	0.0610072049	
#timeindex 14
-0.4075534935	-0.1429929552	1.2937486511	0.0323494571	-0.0615420992	0.9975801134	975.9101456055	49.5775929801	-28.5882345575	-50.8781235828	1039.4382587620	65.7742583989	0.0000000000	0.0000000000	0.0106666667	0.0100000000	640	360	-0.0000000000	-0.0000000000	10.4275919095	36.2503399927	0.9982849646	0.0507142649	-0.0292436807	-0.0487918246	0.9968152453	0.0630771313	
#timeindex 15
-0.4337111834	-0.1555075016	1.4050693249	0.0310346188	-0.0616112592	0.9976176147	975.9495548771	49.5268854491	-27.3018521236	-50.9085779598	1039.4365542260	65.7776309574	0.0000000000	0.0000000000	0.0106666667	0.0100000000	640	360	0.0000000000	0.0000000000	10.4275919095	36.2503399927	0.9983252774	0.0506623948	-0.0279278052	-0.0488210302	0.9968136107	0.0630803656	
#timeindex 16
-0.4585411666	-0.1660194555	1.5081815957	0.0311279766	-0.0606612640	0.9976729224	975.9285014258	49.8769679001	-27.4168808304	-51.3042748576	1039.4782635865	64.8038673067	0.0000000000	0.0000000000	0.0106666667	0.0100000000	640	360	0.0000000000	-0.0000000000	10.4275919095	36.2503399927	0.9983037412	0.0510205036	-0.0280454712	-0.0492005012	0.9968536097	0.0621465319	
#timeindex 17
-0.4832031247	-0.1757740712	1.6182098684	0.0329164773	-0.0587020063	0.9977327197	975.8484522400	50.4116080032	-29.2285000597	-51.8203084417	1039.5712315097	62.8732101595	0.0000000000	0.0000000000	0.0106666667	0.0100000000	640	360	0.0000000000	-0.0000000000	10.4275919095	36.2503399927	0.9982218567	0.0515674015	-0.0298986257	-0.0496953744	0.9969427654	0.0602950429	
#timeindex 18
-0.5056047023	-0.1847790922	1.7200048245	0.0343740892	-0.0561325933	0.9978314256	975.8511111920	49.3906506812	-30.8384433333	-50.7226683560	1039.7812788063	60.2397996686	0.0000000000	0.0000000000	0.0106666667	0.0100000000	640	360	0.0000000000	0.0000000000	10.4275919095	36.2503399927	0.9982245767	0.0505230366	-0.0315454803	-0.0486427440	0.9971441996	0.0577696176	
#timeindex 19
-0.5258755035	-0.1925899466	1.8354925407	0.0343726965	-0.0547708568	0.9979071455	976.0232134883	45.6791109301	-31.1117780436	-46.8047919545	1040.0532635673	58.6962579597	0.0000000000	0.0000000000	0.0106666667	0.0100000000	640	360	0.0000000000	-0.0000000000	10.4275919095	36.2503399927	0.9984006248	0.0467264019	-0.0318250818	-0.0448855233	0.9974050314	0.0562893700	
#timeindex 20
-0.5467453352	-0.1993951129	1.9443593041	0.0355573668	-0.0557391418	0.9978120172	976.0947658075	43.2093242618	-32.3697333400	-44.0645566371	1040.1174077496	59.6726340135	0.0000000000	0.0000000000	0.0106666667	0.0100000000	640	360	0.0000000000	0.0000000000	10.4275919095	36.2503399927	0.9984738176	0.0441999901	-0.0331118784	-0.0422576536	0.9974665453	0.0572257090	
#timeindex 21
-0.5633912117	-0.2065607899	2.0704264620	0.0376371196	-0.0573025104	0.9976471669	976.1014116614	41.4172336299	-34.4453783183	-41.9690444152	1040.1079815786	61.3246791495	0.0000000000	0.0000000000	0.0106666667	0.0100000000	640	360	0.0000000000	0.0000000000	10.4275919095	36.2503399927	0.9984806158	0.0423668119	-0.0352351120	-0.0402480695	0.9974575056	0.0588100107	
#timeindex 22
-0.5741653229	-0.2134622567	2.1943998735	0.0387787728	-0.0594681978	0.9974766866	976.2443723239	36.6524423738	-35.7681583310	-36.7284147816	1040.1792502027	63.4419522142	0.0000000000	0.0000000000	0.0106666667	0.0100000000	640	360	0.0000000000	0.0000000000	10.4275919095	36.2503399927	0.9986268541	0.0374927777	-0.0365882196	-0.0352223362	0.9975258518	0.0608404632	
#timeindex 23
-0.5965201724	-0.2192662469	2.2914438386	0.0365409205	-0.0634239641	0.9973174830	976.4687462665	32.3678777509	-33.7186184639	-32.1519807159	1040.0868923924	67.3218888251	0.0000000000	0.0000000000	0.0106666667	0.0100000000	640	360	0.0000000000	-0.0000000000	10.4275919095	36.2503399927	0.9988563723	0.0331099803	-0.0344916896	-0.0308335625	0.9974372812	0.0645612999	
#timeindex 24
-0.6146554888	-0.2288130422	2.4205711587	0.0315582749	-0.0684550053	0.9971549466	976.7221768737	29.2251653109	-28.9052952268	-28.9741930851	1039.8459214747	72.3027387653	0.0000000000	0.0000000000	0.0106666667	0.0100000000	640	360	0.0000000000	0.0000000000	10.4275919095	36.2503399927	0.9991156134	0.0298952145	-0.0295680107	-0.0277860827	0.9972061915	0.0693379060	
#timeindex 25
-0.6211833828	-0.2374116258	2.5590955369	0.0266762956	-0.0767186266	0.9966958551	976.9590690156	25.3224779566	-24.1988998662	-24.9411226204	1039.3350311497	80.6682324891	0.0000000000	0.0000000000	0.0106666667	0.0100000000	640	360	0.0000000000	0.0000000000	10.4275919095	36.2503399927	0.9993579368	0.0259030497	-0.0247537112	-0.0239183915	0.9967162507	0.0773603658	
#timeindex 26
-0.6378591705	-0.2434288587	2.6628661631	0.0219317956	-0.0845852279	0.9961748519	977.1726503328	20.4530652646	-19.7767727254	-19.9488068616	1038.7931310591	88.6431400313	0.0000000000	0.0000000000	0.0106666667	0.0100000000	640	360	0.0000000000	0.0000000000	10.4275919095	36.2503399927	0.9995764149	0.0209219954	-0.0202301974	-0.0191307898	0.9961965716	0.0850082558	
#timeindex 27
-0.6546228928	-0.2649450979	2.8123495693	0.0199484903	-0.0896596186	0.9957726701	977.2807740473	16.4508908278	-18.0967965382	-15.7427153167	1038.4111888923	93.8141780500	0.0000000000	0.0000000000	0.0106666667	0.0100000000	640	360	0.0000000000	0.0000000000	10.4275919095	36.2503399927	0.9996870176	0.0168280625	-0.0185117041	-0.0150971724	0.9958302913	0.0899672512	
#timeindex 28
-0.6734090539	-0.2781691607	2.9209141184	0.0238362259	-0.0922638205	0.9954492562	977.2328820121	14.2980548158	-22.0748073457	-13.0093674341	1038.1993873870	96.5376542782	0.0000000000	0.0000000000	0.0106666667	0.0100000000	640	360	0.0000000000	-0.0000000000	10.4275919095	36.2503399927	0.9996380275	0.0146258682	-0.0225809193	-0.0124759077	0.9956271749	0.0925790490	
#timeindex 29
-0.6910887341	-0.2962881467	3.0451273154	0.0268044589	-0.0932965875	0.9952774828	977.2152096100	8.7162063900	-25.5009613455	-6.7156173705	1038.1694223351	97.4981093001	0.0000000000	0.0000000000	0.0106666667	0.0100000000	640	360	0.0000000000	-0.0000000000	10.4275919095	36.2503399927	0.9996199499	0.0089160440	-0.0260856252	-0.0064402380	0.9955984386	0.0935001198	
#timeindex 30
-0.7106124560	-0.3114364755	3.1563985907	0.0249497459	-0.0919371489	0.9954521942	977.2803170425	4.2650471092	-24.1003832106	-2.1652586499	1038.3329432969	95.9517630103	0.0000000000	0.0000000000	0.0106666667	0.0100000000	640	360	0.0000000000	0.0000000000	10.4275919095	36.2503399927	0.9996865501	0.0043628324	-0.0246529358	-0.0020764705	0.9957552542	0.0920171827	
#timeindex 31
-0.7293076995	-0.3305314714	3.2807627412	0.0177130540	-0.0881791174	0.9959471326	977.4252472828	5.4969167359	-16.8969540767	-4.2503252951	1038.6807136470	92.0382536668	0.0000000000	0.0000000000	0.0106666667	0.0100000000	640	360	0.0000000000	-0.0000000000	10.4275919095	36.2503399927	0.9998348032	0.0056229453	-0.0172843527	-0.0040760372	0.9960887640	0.0882641500	
#timeindex 32
-0.7484064518	-0.3457081557	3.3979263781	0.0107106476	-0.0865100421	0.9961934022	977.5013317210	8.4508829692	-9.7757985452	-8.0778763879	1038.8107546338	90.2978088082	0.0000000000	0.0000000000	0.0106666667	0.0100000000	640	360	0.0000000000	0.0000000000	10.4275919095	36.2503399927	0.9999126320	0.0086446375	-0.0099999296	-0.0077466365	0.9962134725	0.0865950735	
#timeindex 33
-0.7676831356	-0.3560071262	3.5132343728	0.0076446878	-0.0874056491	0.9961434692	977.5349597692	7.3647411256	-6.8556687334	-7.1862555721	1038.7386405849	91.1982707732	0.0000000000	0.0000000000	0.0106666667	0.0100000000	640	360	0.0000000000	0.0000000000	10.4275919095	36.2503399927	0.9999470311	0.0075335935	-0.0070128495	-0.0068915773	0.9961443156	0.0874586113	
#timeindex 34
-0.7834669577	-0.3660618780	3.6382464708	0.0063543853	-0.0872715261	0.9961642949	977.5604607618	4.1054638013	-5.8760444790	-3.8153654228	1038.7713768662	91.0285663716	0.0000000000	0.0000000000	0.0106666667	0.0100000000	640	360	0.0000000000	0.0000000000	10.4275919095	36.2503399927	0.9999731167	0.0041995903	-0.0060107653	-0.0036589133	0.9961757095	0.0872958658	
#timeindex 35
-0.8050298209	-0.3730895360	3.7569622647	0.0083584481	-0.0846492991	0.9963757487	977.5519538371	1.8047448366	-8.0472120515	-1.1914806700	1039.0147435344	88.2817840630	0.0000000000	0.0000000000	0.0106666667	0.0100000000	640	360	0.0000000000	0.0000000000	10.4275919095	36.2503399927	0.9999644147	0.0018461225	-0.0082317115	-0.0011426230	0.9964090967	0.0846617175	
#timeindex 36
-0.8255601540	-0.3797391703	3.8792290817	0.0113178440	-0.0815504400	0.9966049529	977.5238181102	0.1262682006	-11.0908187321	0.8305297426	1039.2859763870	85.0335216909	0.0000000000	0.0000000000	0.0106666667	0.0100000000	640	360	0.0000000000	0.0000000000	10.4275919095	36.2503399927	0.9999356339	0.0001291632	-0.0113450994	0.0007964732	0.9966692074	0.0815466528	
#timeindex 37
-0.8443274463	-0.3840499011	4.0075496607	0.0115870947	-0.0801567295	0.9967149231	977.5180261199	-1.5410643567	-11.4878591479	2.6206197970	1039.4025761717	83.5592442819	0.0000000000	0.0000000000	0.0106666667	0.0100000000	640	360	0.0000000000	0.0000000000	10.4275919095	36.2503399927	0.9999297092	-0.0015763965	-0.0117512428	0.0025131591	0.9967810260	0.0801328293	
#timeindex 38
-0.8638630851	-0.3853447036	4.1353903157	0.0116705802	-0.0806577089	0.9966735331	977.5185796383	-0.8342844998	-11.5138007521	1.8775318070	1039.3613537763	84.0903172546	0.0000000000	0.0000000000	0.0106666667	0.0100000000	640	360	0.0000000000	0.0000000000	10.4275919095	36.2503399927	0.9999302754	-0.0008534122	-0.0117777792	0.0018005421	0.9967414939	0.0806421252	
#timeindex 39
-0.8862931882	-0.3921718598	4.2790119607	0.0120700925	-0.0819174533	0.9965660258	977.5147332050	2.2091034106	-11.6577616086	-1.3296461481	1039.2519285969	85.4423270640	0.0000000000	0.0000000000	0.0106666667	0.0100000000	640	360	-0.0000000000	0.0000000000	10.4275919095	36.2503399927	0.9999263408	0.0022597518	-0.0119250406	-0.0012751229	0.9966365558	0.0819386948	
#timeindex 40
-0.9093726857	-0.3962553225	4.4020661932	0.0133396417	-0.0841155143	0.9963667167	977.4932413241	4.6542151152	-12.6940389090	-3.8075087165	1039.0518031136	87.7700611206	0.0000000000	0.0000000000	0.0106666667	0.0100000000	640	360	0.0000000000	0.0000000000	10.4275919095	36.2503399927	0.9999043561	0.0047609229	-0.0129850768	-0.0036513787	0.9964446366	0.0841709782	
#timeindex 41
-0.9414881582	-0.4007494635	4.5368765557	0.0161141124	-0.0861656406	0.9961504996	977.4335217242	8.5006225651	-15.0760473064	-7.6467862836	1038.8414166080	89.9820432351	0.0000000000	0.0000000000	0.0106666667	0.0100000000	640	360	0.0000000000	0.0000000000	10.4275919095	36.2503399927	0.9998432673	0.0086955174	-0.0154216978	-0.0073332236	0.9962428772	0.0862922562	
#timeindex 42
-0.9688048595	-0.4039298467	4.6449863519	0.0217577370	-0.0877114675	0.9959082786	977.2940476627	12.7700791865	-20.2263851727	-11.6733244323	1038.6510005894	91.7309259559	0.0000000000	0.0000000000	0.0106666667	0.0100000000	640	360	0.0000000000	-0.0000000000	10.4275919095	36.2503399927	0.9997005955	0.0130628605	-0.0206901181	-0.0111946502	0.9960602693	0.0879694245	
#timeindex 43
-0.9935299655	-0.4195771965	4.7846989153	0.0305109962	-0.0935336531	0.9951484989	977.0168775128	17.7053521065	-28.2909656690	-15.9715170172	1038.0160689095	98.0524432908	0.0000000000	0.0000000000	0.0106666667	0.0100000000	640	360	0.0000000000	-0.0000000000	10.4275919095	36.2503399927	0.9994170707	0.0181112850	-0.0289395963	-0.0153165919	0.9954513735	0.0940317229	
#timeindex 44
-1.0163500097	-0.4273832614	4.8887883005	0.0392619050	-0.1019591337	0.9940134998	976.5311277078	28.0892328782	-35.6901777895	-25.9009462118	1036.8921475574	107.3803782104	0.0000000000	0.0000000000	0.0106666667	0.0100000000	640	360	0.0000000000	-0.0000000000	10.4275919095	36.2503399927	0.9989201840	0.0287332384	-0.0365084511	-0.0248388568	0.9943735395	0.1029771582	
#timeindex 45
-1.0454459288	-0.4440716250	5.0029695942	0.0460024130	-0.1088028689	0.9929983453	976.0655902802	35.5568944037	-41.3220027092	-32.8661171865	1035.8745897220	115.0234020311	0.0000000000	0.0000000000	0.0106666667	0.0100000000	640	360	0.0000000000	0.0000000000	10.4275919095	36.2503399927	0.9984439731	0.0363721120	-0.0422693976	-0.0315184153	0.9933977075	0.1103067736	
#timeindex 46
-1.0674614008	-0.4581700810	5.1290915442	0.0476051310	-0.1137549545	0.9923676546	975.9000049319	38.7199314034	-42.3766971645	-35.8441048063	1035.1668770270	120.3805098930	0.0000000000	0.0000000000	0.0106666667	0.0100000000	640	360	0.0000000000	0.0000000000	10.4275919095	36.2503399927	0.9982745914	0.0396076683	-0.0433482732	-0.0343742881	0.9927190151	0.1154442089	
#timeindex 47
-1.0922967980	-0.4721946188	5.2511832094	0.0474272493	-0.1140272951	0.9923449158	975.7954053793	41.8257854098	-41.8302246232	-39.1848726768	1034.9968020500	120.8010587909	0.0000000000	0.0000000000	0.0106666667	0.0100000000	640	360	0.0000000000	0.0000000000	10.4275919095	36.2503399927	0.9981675937	0.0427847306	-0.0427892716	-0.0375780650	0.9925559142	0.1158475129	
#timeindex 48
-1.1152871066	-0.4884807851	5.3862008629	0.0484438612	-0.1102050872	0.9927275714	975.7034657436	42.9261279691	-42.8477729868	-40.4180354261	1035.3956731207	116.9141257528	0.0000000000	0.0000000000	0.0106666667	0.0100000000	640	360	-0.0000000000	-0.0000000000	10.4275919095	36.2503399927	0.9980735461	0.0439103009	-0.0438301495	-0.0387606609	0.9929384292	0.1121199667	
#timeindex 49
-1.1377780331	-0.5064664818	5.5269640253	0.0519021740	-0.1067722079	0.9929279228	975.5423795818	42.9180039506	-46.3783112379	-40.1734078117	1035.7870973635	113.4809082867	0.0000000000	0.0000000000	0.0106666667	0.0100000000	640	360	-0.0000000000	0.0000000000	10.4275919095	36.2503399927	0.9979087667	0.0439019906	-0.0474416328	-0.0385260645	0.9933138028	0.1088275311	
#timeindex 50
-1.1584741849	-0.5160903574	5.6438719651	0.0566782480	-0.1067347244	0.9926707787	975.3319348023	42.2845098013	-51.1417086349	-38.9504011641	1035.8209425269	113.5982903798	0.0000000000	0.0000000000	0.0106666667	0.0100000000	640	360	-0.0000000000	0.0000000000	10.4275919095	36.2503399927	0.9976934970	0.0432539723	-0.0523142412	-0.0373532082	0.9933462601	0.1089400998	
#timeindex 51
-1.1764499297	-0.5276510602	5.7707866509	0.0587810104	-0.1053884505	0.9926923327	975.2807140027	40.5885576882	-53.4409492394	-36.9705505880	1036.0479999722	112.1804370123	0.0000000000	0.0000000000	0.0106666667	0.0100000000	640	360	0.0000000000	0.0000000000	10.4275919095	36.2503399927	0.9976411019	0.0415191368	-0.0546661968	-0.0354545430	0.9935640069	0.1075803867	
#timeindex 52
-1.1898685498	-0.5386593429	5.9272579180	0.0587708100	-0.0983104289	0.9934188701	975.3411083625	38.4854819443	-53.8927378626	-35.1295848668	1036.8955537967	104.6912273745	0.0000000000	0.0000000000	0.0106666667	0.0100000000	640	360	-0.0000000000	0.0000000000	10.4275919095	36.2503399927	0.9977028809	0.0393678436	-0.0551283437	-0.0336890676	0.9943768061	0.1003982782	
#timeindex 53
-1.1978485503	-0.5459433233	6.0840718605	0.0564245974	-0.0909171882	0.9942586835	975.4959561280	37.1997972765	-51.9581739191	-34.4131524179	1037.6821804186	96.8408885120	0.0000000000	0.0000000000	0.0106666667	0.0100000000	640	360	0.0000000000	0.0000000000	10.4275919095	36.2503399927	0.9978612789	0.0380526819	-0.0531494257	-0.0330020130	0.9951311764	0.0928698489	
#timeindex 54
-1.2146292157	-0.5479661237	6.2098571530	0.0554503478	-0.0852438736	0.9948159332	975.5129915034	37.8981673085	-51.1269938423	-35.5663335215	1038.1769350196	90.9418375584	0.0000000000	0.0000000000	0.0106666667	0.0100000000	640	360	0.0000000000	0.0000000000	10.4275919095	36.2503399927	0.9978787049	0.0387670635	-0.0522991891	-0.0341079070	0.9956056432	0.0872126934	
#timeindex 55
-1.2348429843	-0.5552960029	6.3373416295	0.0564563646	-0.0821068583	0.9950231870	975.4505579872	38.0318033792	-52.2075476406	-35.7929903871	1038.4462627595	87.7208726888	0.0000000000	0.0000000000	0.0106666667	0.0100000000	640	360	0.0000000000	0.0000000000	10.4275919095	36.2503399927	0.9978148399	0.0389037635	-0.0534045169	-0.0343252696	0.9958639269	0.0841238068	
#timeindex 56
-1.2522798549	-0.5595120863	6.4623375108	0.0594813462	-0.0823334269	0.9948282145	975.2568072390	38.9245580998	-55.0897076343	-36.4666924953	1038.3891180262	88.1189548776	0.0000000000	0.0000000000	0.0106666667	0.0100000000	640	360	0.0000000000	-0.0000000000	10.4275919095	36.2503399927	0.9976166470	0.0398169865	-0.0563527565	-0.0349713460	0.9958091255	0.0845055653	
#timeindex 57
-1.2630237483	-0.5647058004	6.6167102208	0.0644449146	-0.0835699914	0.9944158635	974.9439037250	39.7362001082	-59.8435975425	-36.8140574001	1038.2467193565	89.6393062705	0.0000000000	0.0000000000	0.0106666667	0.0100000000	640	360	0.0000000000	-0.0000000000	10.4275919095	36.2503399927	0.9972965695	0.0406472371	-0.0612156395	-0.0353044670	0.9956725660	0.0859635734	
#timeindex 58
-1.2777887815	-0.5684606535	6.7416911651	0.0680115516	-0.0835511689	0.9941798786	974.7771649844	38.1564993394	-63.4775342909	-34.8061884731	1038.3157857653	89.6414445439	0.0000000000	0.0000000000	0.0106666667	0.0100000000	640	360	0.0000000000	-0.0000000000	10.4275919095	36.2503399927	0.9971260079	0.0390313184	-0.0649328920	-0.0333789323	0.9957388003	0.0859656240	
#timeindex 59
-1.2867035406	-0.5789789970	6.8903731243	0.0702140206	-0.0836367058	0.9940195636	974.7192086317	35.5003092418	-65.8637194870	-31.7646691958	1038.4154868547	89.6159179866	0.0000000000	0.0000000000	0.0106666667	0.0100000000	640	360	0.0000000000	-0.0000000000	10.4275919095	36.2503399927	0.9970667228	0.0363142295	-0.0673737856	-0.0304621330	0.9958344130	0.0859411442	
#timeindex 60
-1.3020312204	-0.5929500961	7.0147169613	0.0690491837	-0.0872740351	0.9937884347	974.9211490890	31.3246565965	-64.9873535738	-27.1555977310	1038.2428655689	93.0647941629	0.0000000000	0.0000000000	0.0106666667	0.0100000000	640	360	0.0000000000	-0.0000000000	10.4275919095	36.2503399927	0.9972732932	0.0320428411	-0.0664773271	-0.0260420603	0.9956688702	0.0892485964	
#timeindex 61
-1.3161183674	-0.6074095355	7.1387663954	0.0670725479	-0.0921704053	0.9934817007	975.1197125146	28.7702693299	-63.1637162043	-24.2783048318	1037.8668179145	97.9273327116	0.0000000000	0.0000000000	0.0106666667	0.0100000000	640	360	-0.0000000000	-0.0000000000	10.4275919095	36.2503399927	0.9974764091	0.0294298890	-0.0646118789	-0.0232827531	0.9953082427	0.0939117426	
#timeindex 62
-1.3217274331	-0.6298019007	7.2802667548	0.0712997594	-0.0923746224	0.9931683007	974.8873363917	26.7205290277	-67.5020877316	-21.6560027107	1037.9094206299	98.0906846739	0.0000000000	0.0000000000	0.0106666667	0.0100000000	640	360	0.0000000000	0.0000000000	10.4275919095	36.2503399927	0.9972387053	0.0273331541	-0.0690497169	-0.0207679807	0.9953490985	0.0940683962	
#timeindex 63
-1.3316747668	-0.6473555545	7.4090243651	0.0769046586	-0.0896318706	0.9930014105	974.5639076238	22.5154590387	-73.4444091670	-16.8265843259	1038.2843222522	95.0224317237	0.0000000000	0.0000000000	0.0106666667	0.0100000000	640	360	0.0000000000	-0.0000000000	10.4275919095	36.2503399927	0.9969078612	0.0230316739	-0.0751282787	-0.0161365965	0.9957086269	0.0911259594	
#timeindex 64
-1.3437504077	-0.6665294444	7.5452124914	0.0764592750	-0.0856206442	0.9933896942	974.6355539128	19.6166495426	-73.3250386049	-14.0894298117	1038.7192471000	90.6120520512	0.0000000000	0.0000000000	0.0106666667	0.0100000000	640	360	-0.0000000000	0.0000000000	10.4275919095	36.2503399927	0.9969811501	0.0200664030	-0.0750061713	-0.0135116813	0.9961257173	0.0868964310	
#timeindex 65
-1.3633025982	-0.6840531188	7.6726847687	0.0696672805	-0.0837812927	0.9940458566	975.1278878190	18.4739217541	-66.7843828236	-13.6198863445	1038.9061577308	88.5168030964	0.0000000000	0.0000000000	0.0106666667	0.0100000000	640	360	-0.0000000000	0.0000000000	10.4275919095	36.2503399927	0.9974847719	0.0188974758	-0.0683155571	-0.0130613918	0.9963049636	0.0848870994	
#timeindex 66
-1.3696001426	-0.6976653014	7.8336552217	0.0607910075	-0.0848950733	0.9945336997	975.7167929416	16.0270623677	-58.2727244948	-11.7252121774	1038.8540689362	89.3950399040	0.0000000000	0.0000000000	0.0106666667	0.0100000000	640	360	-0.0000000000	0.0000000000	10.4275919095	36.2503399927	0.9980871789	0.0163945169	-0.0596087508	-0.0112444103	0.9962550107	0.0857293234	
#timeindex 67
-1.3921043467	-0.7127883638	7.9422336000	0.0560966773	-0.0864690148	0.9946739527	976.0164600909	12.5008116434	-53.9577289782	-8.2864640669	1038.7679995910	90.7695314761	0.0000000000	0.0000000000	0.0106666667	0.0100000000	640	360	-0.0000000000	0.0000000000	10.4275919095	36.2503399927	0.9983937165	0.0127874194	-0.0551948249	-0.0079466709	0.9961724707	0.0870474528	
#timeindex 68
-1.4072163375	-0.7217798019	8.0911635866	0.0545730160	-0.0865743651	0.9947495490	976.1155904982	9.9034835036	-52.6888240272	-5.6426498791	1038.7903268901	90.7168538215	0.0000000000	0.0000000000	0.0106666667	0.0100000000	640	360	0.0000000000	0.0000000000	10.4275919095	36.2503399927	0.9984951197	0.0101305420	-0.0538968276	-0.0054112684	0.9961938824	0.0869969353	
#timeindex 69
-1.4235733320	-0.7296524135	8.2262066779	0.0548536148	-0.0859224981	0.9947906339	976.1097936968	7.7628872894	-53.1530376041	-3.3657661832	1038.8698844463	89.9153219084	0.0000000000	0.0000000000	0.0106666667	0.0100000000	640	360	0.0000000000	0.0000000000	10.4275919095	36.2503399927	0.9984891900	0.0079408680	-0.0543716842	-0.0032277502	0.9962701777	0.0862282708	
#timeindex 70
-1.4417023496	-0.7380415216	8.3615722642	0.0559121268	-0.0859545654	0.9947289313	976.0574938543	4.6376456937	-54.4618959438	0.0725848028	1038.8882220611	89.7662915557	0.0000000000	0.0000000000	0.0106666667	0.0100000000	640	360	0.0000000000	0.0000000000	10.4275919095	36.2503399927	0.9984356911	0.0047439736	-0.0557105509	0.0000696084	0.9962877633	0.0860853516	
#timeindex 71
-1.4625460107	-0.7457967708	8.5052303063	0.0543062846	-0.0871244832	0.9947161162	976.1416231193	2.4202053618	-53.0802354612	2.3649821909	1038.7908209213	90.8557512455	0.0000000000	0.0000000000	0.0106666667	0.0100000000	640	360	0.0000000000	0.0000000000	10.4275919095	36.2503399927	0.9985217492	0.0024756937	-0.0542972129	0.0022680042	0.9961943562	0.0871301371	
#timeindex 72
-1.4787943256	-0.7532372711	8.6426356160	0.0511371447	-0.0889405463	0.9947233644	976.2976571836	0.0341309693	-50.1868567399	4.7250086225	1038.6266696033	92.6231385108	0.0000000000	0.0000000000	0.0106666667	0.0100000000	640	360	0.0000000000	0.0000000000	10.4275919095	36.2503399927	0.9986813607	0.0000349135	-0.0513374973	0.0045312558	0.9960369361	0.0888250512	
#timeindex 73
-1.4975911341	-0.7656175096	8.8001271073	0.0490311314	-0.0895220405	0.9947772376	976.4024262215	0.2278172293	-48.1049617462	4.3518154046	1038.5723189633	93.2487549052	0.0000000000	0.0000000000	0.0106666667	0.0100000000	640	360	0.0000000000	0.0000000000	10.4275919095	36.2503399927	0.9987885318	0.0002330404	-0.0492078705	0.0041733657	0.9959848141	0.0894250137	
#timeindex 74
-1.5247240256	-0.7688717954	8.9281379691	0.0499956455	-0.0882405788	0.9948437243	976.3638830126	3.5255101814	-48.7542398476	0.8477553752	1038.6847800499	92.0865859340	0.0000000000	0.0000000000	0.0106666667	0.0100000000	640	360	0.0000000000	0.0000000000	10.4275919095	36.2503399927	0.9987491049	0.0036063400	-0.0498720347	0.0008129925	0.9960926636	0.0883105004	
#timeindex 75
-1.5462819033	-0.7850862978	9.0590019426	0.0547179576	-0.0869080187	0.9947124918	976.1208151004	6.2786018286	-53.1466900513	-1.7349654813	1038.7921564302	90.8546968482	0.0000000000	0.0000000000	0.0106666667	0.0100000000	640	360	0.0000000000	0.0000000000	10.4275919095	36.2503399927	0.9985004641	0.0064225522	-0.0543651911	-0.0016638218	0.9961956370	0.0871291259	
#timeindex 76
-1.5747399768	-0.7989644786	9.1840919729	0.0586194992	-0.0878300124	0.9944091931	975.9043555304	6.6473950728	-56.9415329261	-1.7163255780	1038.7052232890	91.8435824876	0.0000000000	0.0000000000	0.0106666667	0.0100000000	640	360	0.0000000000	-0.0000000000	10.4275919095	36.2503399927	0.9982790417	0.0067998008	-0.0582470389	-0.0016459462	0.9961122686	0.0880774615	
#timeindex 77
-1.6107593163	-0.8128287752	9.2931203408	0.0606676971	-0.0887013515	0.9942089824	975.7791747254	1.6164230757	-59.3988764634	3.9058114951	1038.6474810073	92.4277292764	0.0000000000	0.0000000000	0.0106666667	0.0100000000	640	360	0.0000000000	0.0000000000	10.4275919095	36.2503399927	0.9981509909	0.0016534830	-0.0607607222	0.0037456505	0.9960568941	0.0886376549	
#timeindex 78
-1.6338099188	-0.8377369293	9.4160972812	0.0614405988	-0.0878142283	0.9942402698	975.7172271053	-1.3435682408	-60.4146069325	7.0838311837	1038.7298866925	91.3059260562	0.0000000000	0.0000000000	0.0106666667	0.0100000000	640	360	0.0000000000	0.0000000000	10.4275919095	36.2503399927	0.9980876230	-0.0013743724	-0.0617997405	0.0067933529	0.9961359207	0.0875618521	
#timeindex 79
-1.6665770396	-0.8604152234	9.5498973998	0.0605229574	-0.0860871155	0.9944475754	975.7938591909	3.8747729842	-59.0522453104	1.3124041238	1038.8798441240	89.8536441874	0.0000000000	0.0000000000	0.0106666667	0.0100000000	640	360	0.0000000000	0.0000000000	10.4275919095	36.2503399927	0.9981660120	0.0039636104	-0.0604061438	0.0012585879	0.9962797290	0.0861691222	
#timeindex 80
-1.6959862099	-0.8765236725	9.6714815328	0.0569137633	-0.0814251281	0.9950531504	975.9899994853	9.4032435627	-55.0539471034	-5.1988825998	1039.2482677730	85.3389703244	0.0000000000	0.0000000000	0.0106666667	0.0100000000	640	360	0.0000000000	-0.0000000000	10.4275919095	36.2503399927	0.9983666493	0.0096188330	-0.0563161761	-0.0049856982	0.9966330451	0.0818395763	
#timeindex 81
-1.7192128227	-0.8976391098	9.8142951258	0.0518940531	-0.0745109627	0.9958690294	976.2260521742	12.9860008087	-49.8988578620	-9.8286336885	1039.7682613557	78.3076684781	0.0000000000	0.0000000000	0.0106666667	0.0100000000	640	360	0.0000000000	-0.0000000000	10.4275919095	36.2503399927	0.9986081140	0.0132837325	-0.0510428955	-0.0094256025	0.9971317159	0.0750965987	
#timeindex 82
-1.7452078766	-0.9113995262	9.9293669326	0.0464562177	-0.0694435124	0.9965035968	976.4504189935	15.7057303173	-44.4268664119	-13.4033697088	1040.1069427168	73.1069606682	0.0000000000	0.0000000000	0.0106666667	0.0100000000	640	360	0.0000000000	-0.0000000000	10.4275919095	36.2503399927	0.9988376249	0.0160658176	-0.0454454470	-0.0128537536	0.9974565094	0.0701091501	
#timeindex 83
-1.7661897470	-0.9249046910	10.0598119204	0.0448035341	-0.0697628940	0.9965569637	976.5101442830	16.6546661906	-42.7363707268	-14.5236380464	1040.0669065381	73.4617190619	0.0000000000	0.0000000000	0.0106666667	0.0100000000	640	360	0.0000000000	0.0000000000	10.4275919095	36.2503399927	0.9988987195	0.0170365099	-0.0437161931	-0.0139280844	0.9974181149	0.0704493614	
#timeindex 84
-1.7827408239	-0.9281198666	10.2093876572	0.0478589738	-0.0713787540	0.9963004527	976.3921189190	15.3805420635	-45.8007228685	-12.8580719914	1039.9700114339	75.1250664447	0.0000000000	0.0000000000	0.0106666667	0.0100000000	640	360	-0.0000000000	-0.0000000000	10.4275919095	36.2503399927	0.9987779881	0.0157331738	-0.0468508020	-0.0123308163	0.9973251931	0.0720445018	
#timeindex 85
-1.8126368855	-0.9397273847	10.3311821302	0.0498707680	-0.0721227898	0.9961481866	976.3237919400	13.0381317933	-47.9343049152	-10.1661392483	1039.9506085229	75.8031117504	0.0000000000	0.0000000000	0.0106666667	0.0100000000	640	360	0.0000000000	0.0000000000	10.4275919095	36.2503399927	0.9987080946	0.0133370587	-0.0490333010	-0.0097492684	0.9973065858	0.0726947433	
#timeindex 86
-1.8344214864	-0.9472551823	10.4553576078	0.0506281538	-0.0720362680	0.9961162413	976.2883981780	12.8956234894	-48.6878183357	-9.9608013517	1039.9591508803	75.7131246363	0.0000000000	0.0000000000	0.0106666667	0.0100000000	640	360	0.0000000000	0.0000000000	10.4275919095	36.2503399927	0.9986718894	0.0131912831	-0.0498040903	-0.0095523506	0.9973147779	0.0726084462	
#timeindex 87
-1.8433880291	-0.9542792528	10.6155191149	0.0501334819	-0.0707977335	0.9962300512	976.3054583149	13.5372902841	-48.1687763260	-10.7477495486	1040.0423522190	74.4521441989	0.0000000000	0.0000000000	0.0106666667	0.0100000000	640	360	0.0000000000	0.0000000000	10.4275919095	36.2503399927	0.9986893407	0.0138476615	-0.0492731481	-0.0103070293	0.9973945675	0.0713991733	
#timeindex 88
-1.8642857405	-0.9593941407	10.7484152612	0.0499534738	-0.0712440726	0.9962072739	976.3183959514	13.1393157104	-48.0165105574	-10.3131627971	1040.0150178115	74.8941366537	0.0000000000	0.0000000000	0.0106666667	0.0100000000	640	360	0.0000000000	0.0000000000	10.4275919095	36.2503399927	0.9987025749	0.0134405625	-0.0491173913	-0.0098902631	0.9973683539	0.0718230415	
#timeindex 89
-1.8829189389	-0.9673094171	10.8878950690	0.0513987090	-0.0740716021	0.9959274926	976.2603342131	11.8921135973	-49.4992389110	-8.7223412764	1039.8172839848	77.7860334151	0.0000000000	0.0000000000	0.0106666667	0.0100000000	640	360	-0.0000000000	0.0000000000	10.4275919095	36.2503399927	0.9986431820	0.0121647656	-0.0506341144	-0.0083646746	0.9971787283	0.0745963537	
#timeindex 90
-1.9040724921	-0.9699567408	11.0084341533	0.0529987804	-0.0783478730	0.9955163183	976.1873261767	11.1079244156	-51.0955517018	-7.5252183733	1039.4863092175	82.2089675356	0.0000000000	0.0000000000	0.0106666667	0.0100000000	640	360	-0.0000000000	0.0000000000	10.4275919095	36.2503399927	0.9985685001	0.0113625972	-0.0522670261	-0.0072166407	0.9968613255	0.0788379218	
#timeindex 91
-1.9157160076	-0.9709559524	11.1668223822	0.0542324712	-0.0807635347	0.9952567963	976.1163617314	12.1407517302	-52.2042879864	-8.3914270355	1039.2721178812	84.7925660216	0.0000000000	0.0000000000	0.0106666667	0.0100000000	640	360	0.0000000000	0.0000000000	10.4275919095	36.2503399927	0.9984959086	0.0124191043	-0.0534011825	-0.0080473297	0.9966559172	0.0813155777	
#timeindex 92
-1.9381150527	-0.9745172198	11.2862136607	0.0542220253	-0.0825064407	0.9951143950	976.1188986173	11.9818768118	-52.1935586709	-8.1248355657	1039.1253415979	86.5981628070	0.0000000000	0.0000000000	0.0106666667	0.0100000000	640	360	0.0000000000	0.0000000000	10.4275919095	36.2503399927	0.9984985037	0.0122565869	-0.0533902072	-0.0077916701	0.9965151596	0.0830471345	
#timeindex 93
-1.9545418591	-0.9996255586	11.4110454996	0.0506470918	-0.0900515204	0.9946484785	976.3249122677	8.2051208103	-48.9712043392	-4.0013648272	1038.4856934288	94.2241154299	0.0000000000	0.0000000000	0.0106666667	0.0100000000	640	360	0.0000000000	0.0000000000	10.4275919095	36.2503399927	0.9987092406	0.0083932407	-0.0500939735	-0.0038372856	0.9959017407	0.0903603787	
#timeindex 94
-1.9763315752	-1.0093143266	11.5658434131	0.0451148921	-0.0960450412	0.9943540600	976.5892456403	6.2686487024	-43.7033925424	-2.1714796276	1037.9169655094	100.3513213140	0.0000000000	0.0000000000	0.0106666667	0.0100000000	640	360	0.0000000000	0.0000000000	10.4275919095	36.2503399927	0.9989796344	0.0064123708	-0.0447053859	-0.0020824363	0.9953563340	0.0962363336	
#timeindex 95
-2.0017308189	-1.0222981331	11.7040967454	0.0418593380	-0.0986683508	0.9942395850	976.7239487716	7.4371215676	-40.3838370564	-3.6369856619	1037.6405911109	103.1285911845	0.0000000000	0.0000000000	0.0106666667	0.0100000000	640	360	0.0000000000	0.0000000000	10.4275919095	36.2503399927	0.9991174259	0.0076076334	-0.0413097225	-0.0034878481	0.9950912925	0.0988997192	
#timeindex 96
-2.0127283120	-1.0386270960	11.8434512620	0.0421795753	-0.0974269318	0.9943484683	976.7149367717	5.8873211192	-40.8547293900	-1.9986109915	1037.7794522391	101.7671084872	0.0000000000	0.0000000000	0.0106666667	0.0100000000	640	360	0.0000000000	0.0000000000	10.4275919095	36.2503399927	0.9991082073	0.0060223005	-0.0417914111	-0.0019166563	0.9952244595	0.0975940652	
#timeindex 97
-2.0233966119	-1.0549972781	11.9842960744	0.0449661510	-0.0929187400	0.9946578070	976.5911931080	0.4750581280	-44.1050228444	3.8673737341	1038.2477734268	96.8159837018	0.0000000000	0.0000000000	0.0106666667	0.0100000000	640	360	-0.0000000000	0.0000000000	10.4275919095	36.2503399927	0.9989816265	0.0004859498	-0.0451162244	0.0037087889	0.9956735768	0.0928459653	
#timeindex 98
-2.0369006455	-1.0714844070	12.1187456553	0.0446776540	-0.0863316521	0.9952641625	976.5818109770	-3.7008525082	-44.1600196565	7.9954488798	1038.8585005442	89.7542141050	0.0000000000	0.0000000000	0.0106666667	0.0100000000	640	360	-0.0000000000	-0.0000000000	10.4275919095	36.2503399927	0.9989720293	-0.0037857024	-0.0451724822	0.0076675890	0.9962592606	0.0860737694	
#timeindex 99
-2.0562316842	-1.0866606965	12.2624452745	0.0404213072	-0.0806462068	0.9959228420	976.7412392928	-6.3230134480	-40.1548022302	10.1712704086	1039.3408219221	83.7492176085	0.0000000000	0.0000000000	0.0106666667	0.0100000000	640	360	-0.0000000000	0.0000000000	10.4275919095	36.2503399927	0.9991351128	-0.0064679820	-0.0410754366	0.0097541892	0.9967218040	0.0803150126	
#timeindex 100
-2.0720047403	-1.0984837369	12.3912712748	0.0383190333	-0.0798947716	0.9960665024	976.7446624393	-12.5372432075	-38.5813310514	16.6083995997	1039.3397748708	82.7268018216	0.0000000000	0.0000000000	0.0106666667	0.0100000000	640	360	0.0000000000	0.0000000000	10.4275919095	36.2503399927	0.9991386145	-0.0128246862	-0.0394658903	0.0159273586	0.9967207999	0.0793345219	
#timeindex 101
-2.0864140659	-1.1199735066	12.5030580389	0.0404110283	-0.0787304116	0.9960765388	976.5629088896	-17.8172601381	-41.0276418868	22.3759764691	1039.3486628034	81.2428649870	0.0000000000	0.0000000000	0.0106666667	0.0100000000	640	360	0.0000000000	0.0000000000	10.4275919095	36.2503399927	0.9989526938	-0.0182257588	-0.0419682880	0.0214584313	0.9967293233	0.0779114351	
#timeindex 102
-2.1102615814	-1.1228546488	12.6324040280	0.0421761812	-0.0762540924	0.9961960064	976.4277632695	-20.5687942002	-42.9136924321	25.3470883284	1039.4915988885	78.4950397092	0.0000000000	0.0000000000	0.0106666667	0.0100000000	640	360	0.0000000000	0.0000000000	10.4275919095	36.2503399927	0.9988144497	-0.0210403776	-0.0438975802	0.0243077103	0.9968663982	0.0752762866	
#timeindex 103
-2.1352009885	-1.1265781203	12.7934524087	0.0430064260	-0.0754474070	0.9962219311	976.3814750530	-21.0171893144	-43.7416289496	25.8538425690	1039.5453970619	77.6123480973	0.0000000000	0.0000000000	0.0106666667	0.0100000000	640	360	0.0000000000	0.0000000000	10.4275919095	36.2503399927	0.9987671002	-0.0214990531	-0.0447444990	0.0247936847	0.9969179904	0.0744297905	
#timeindex 104
-2.1566987012	-1.1314061889	12.9210671064	0.0452489668	-0.0756802919	0.9961049264	976.2890833421	-20.6624895491	-45.9186721197	25.6609558863	1039.5350805217	77.8142789800	0.0000000000	0.0000000000	0.0106666667	0.0100000000	640	360	-0.0000000000	0.0000000000	10.4275919095	36.2503399927	0.9986725903	-0.0211362211	-0.0469714555	0.0246087075	0.9969080969	0.0746234410	
#timeindex 105
-2.1711968168	-1.1341863876	13.0549293146	0.0444310563	-0.0780262907	0.9959607318	976.3752919441	-18.4835695862	-45.0053787111	23.3818797359	1039.3931592003	80.3858110179	0.0000000000	0.0000000000	0.0106666667	0.0100000000	640	360	0.0000000000	0.0000000000	10.4275919095	36.2503399927	0.9987607754	-0.0189073448	-0.0460372229	0.0224230867	0.9967719951	0.0770895253	
#timeindex 106
-2.2046103566	-1.1485125173	13.1765965777	0.0417383170	-0.0824473640	0.9957210177	976.5533340304	-15.4153165163	-42.2112661192	20.0848664239	1039.0789405817	85.1955614200	0.0000000000	0.0000000000	0.0106666667	0.0100000000	640	360	0.0000000000	0.0000000000	10.4275919095	36.2503399927	0.9989428995	-0.0157687455	-0.0431790493	0.0192612701	0.9964706613	0.0817020480	
#timeindex 107
-2.2285798439	-1.1535186144	13.3247783324	0.0444848882	-0.0842434205	0.9954517270	976.4953810837	-11.8308342695	-44.6389881058	16.5734031473	1038.9757588537	87.1861521572	0.0000000000	0.0000000000	0.0106666667	0.0100000000	640	360	0.0000000000	0.0000000000	10.4275919095	36.2503399927	0.9988836178	-0.0121020813	-0.0456624320	0.0158937972	0.9963717106	0.0836110129	
#timeindex 108
-2.2725873531	-1.1648196577	13.4277351649	0.0552981353	-0.0812288497	0.9951602837	976.0492056727	-4.6105938442	-54.6125233498	9.6260184819	1039.3017334524	84.2969567453	0.0000000000	0.0000000000	0.0106666667	0.0100000000	640	360	-0.0000000000	-0.0000000000	10.4275919095	36.2503399927	0.9984272129	-0.0047163015	-0.0558646318	0.0092312957	0.9966843184	0.0808402913	
#timeindex 109
-2.3100620825	-1.1754241428	13.5770096830	0.0667423494	-0.0833172234	0.9942855219	975.4045601191	3.2867979062	-65.1995263399	2.3085097939	1039.1276818142	86.9198594993	0.0000000000	0.0000000000	0.0106666667	0.0100000000	640	360	0.0000000000	0.0000000000	10.4275919095	36.2503399927	0.9977677875	0.0033621547	-0.0666943644	0.0022138475	0.9965174039	0.0833556398	
#timeindex 110
-2.3516859582	-1.1804661418	13.7063561291	0.0726031297	-0.0907319430	0.9932253018	975.0054187505	8.0969797575	-70.5316205855	-1.7521644670	1038.4222588491	94.9888022446	0.0000000000	0.0000000000	0.0106666667	0.0100000000	640	360	0.0000000000	-0.0000000000	10.4275919095	36.2503399927	0.9973594949	0.0082826203	-0.0721487082	-0.0016803155	0.9958409073	0.0910937089	
#timeindex 111
-2.3807476190	-1.2082262994	13.8615286973	0.0736107389	-0.0947234541	0.9927783873	974.9271212255	10.6459204203	-71.2713817307	-4.0724994673	1038.0084418724	99.3409263853	0.0000000000	0.0000000000	0.0106666667	0.0100000000	640	360	0.0000000000	-0.0000000000	10.4275919095	36.2503399927	0.9972794023	0.0108900008	-0.0729054300	-0.0039055033	0.9954440593	0.0952673707	
#timeindex 112
-2.4211489618	-1.2218482490	13.9907166637	0.0708387066	-0.0909560834	0.9933322045	975.0704209182	17.1504507762	-67.9659728479	-11.5777881404	1038.2757038770	95.8970691208	0.0000000000	0.0000000000	0.0106666667	0.0100000000	640	360	-0.0000000000	-0.0000000000	10.4275919095	36.2503399927	0.9974259874	0.0175436614	-0.0695242376	-0.0111030315	0.9957003620	0.0919647316	
#timeindex 113
-2.4439096347	-1.2436474190	14.1109937682	0.0692325849	-0.0850759805	0.9939662604	975.0825540288	23.3317155417	-65.9202628569	-18.7548875168	1038.6805226301	90.2095139579	0.0000000000	0.0000000000	0.0106666667	0.0100000000	640	360	-0.0000000000	0.0000000000	10.4275919095	36.2503399927	0.9974383987	0.0238666448	-0.0674316253	-0.0179858281	0.9960885808	0.0865103993	
#timeindex 114
-2.4719963424	-1.2599944600	14.2372000491	0.0693440479	-0.0793256869	0.9944339286	975.0446595158	24.5656614283	-66.0323966310	-20.4702527828	1039.1428747036	84.3195410870	0.0000000000	0.0000000000	0.0106666667	0.0100000000	640	360	-0.0000000000	-0.0000000000	10.4275919095	36.2503399927	0.9973996354	0.0251288815	-0.0675463300	-0.0196308534	0.9965319738	0.0808619495	
#timeindex 115
-2.4829010143	-1.2736986596	14.3806402541	0.0684325100	-0.0750557144	0.9948284432	975.1088704613	24.0775341129	-65.2594841780	-20.3252464743	1039.5007038017	79.8241909262	0.0000000000	0.0000000000	0.0106666667	0.0100000000	640	360	-0.0000000000	0.0000000000	10.4275919095	36.2503399927	0.9974653185	0.0246295629	-0.0667556969	-0.0194917932	0.9968751298	0.0765509349	
#timeindex 116
-2.5158890990	-1.2897023700	14.5104198368	0.0679469119	-0.0738549731	0.9949515868	975.1447963934	23.7843198090	-64.8287696524	-20.1347410072	1039.6018957328	78.5443880792	0.0000000000	0.0000000000	0.0106666667	0.0100000000	640	360	0.0000000000	0.0000000000	10.4275919095	36.2503399927	0.9975020681	0.0243296260	-0.0663151073	-0.0193090995	0.9969721723	0.0753236114	
#timeindex 117
-2.5383091448	-1.2921829875	14.6659444849	0.0675141704	-0.0732440497	0.9950262037	975.1727301573	23.7535340574	-64.4185777074	-20.1782520647	1039.6496922047	77.8979200468	0.0000000000	0.0000000000	0.0106666667	0.0100000000	640	360	0.0000000000	0.0000000000	10.4275919095	36.2503399927	0.9975306423	0.0242981344	-0.0658955108	-0.0193508264	0.9970180088	0.0747036523	
#timeindex 118
-2.5697329564	-1.3040854251	14.7808921561	0.0649118641	-0.0693800473	0.9954761971	975.3310690759	23.8563611348	-61.9355867429	-20.7481021017	1039.9351657829	73.8315483557	0.0000000000	0.0000000000	0.0106666667	0.0100000000	640	360	-0.0000000000	0.0000000000	10.4275919095	36.2503399927	0.9976926115	0.0244033190	-0.0633555920	-0.0198973093	0.9972917763	0.0708040255	
#timeindex 119
-2.5830233152	-1.3157038451	14.9114936232	0.0619001703	-0.0672250552	0.9958158268	975.4682931013	25.8764354052	-58.8885083982	-23.2633394027	1040.0341050632	71.6561766395	0.0000000000	0.0000000000	0.0106666667	0.0100000000	640	360	-0.0000000000	0.0000000000	10.4275919095	36.2503399927	0.9978329816	0.0264697078	-0.0602386529	-0.0223094072	0.9973866585	0.0687178567	
#timeindex 120
-2.6165970695	-1.3082310924	15.0699293248	0.0605470623	-0.0680401362	0.9958436590	975.4897858648	28.3537117554	-57.3723093460	-25.9543939405	1039.9029785996	72.6284712780	0.0000000000	0.0000000000	0.0106666667	0.0100000000	640	360	0.0000000000	0.0000000000	10.4275919095	36.2503399927	0.9978549672	0.0290037810	-0.0586876918	-0.0248901129	0.9972609090	0.0696502816	
#timeindex 121
-2.6627708220	-1.3253261762	15.2693743889	0.0588208149	-0.0701472350	0.9958009225	975.5496293365	29.9473025443	-55.5150155199	-27.6558151053	1039.6999031988	74.8732093919	0.0000000000	0.0000000000	0.0106666667	0.0100000000	640	360	0.0000000000	0.0000000000	10.4275919095	36.2503399927	0.9979161827	0.0306339082	-0.0567878155	-0.0265217659	0.9970661608	0.0718029724	
#timeindex 122
-2.6850657055	-1.3287656675	15.3989883586	0.0583165689	-0.0747307578	0.9954971078	975.5346306117	31.7661582683	-54.7625131160	-29.3660528847	1039.2911628834	79.7385979045	0.0000000000	0.0000000000	0.0106666667	0.0100000000	640	360	0.0000000000	0.0000000000	10.4275919095	36.2503399927	0.9979008401	0.0324944651	-0.0560180604	-0.0281618739	0.9966741813	0.0764688517	
#timeindex 123
-2.7131615133	-1.3336606728	15.5454813781	0.0596292096	-0.0793602827	0.9950609544	975.4244783078	33.3132601091	-55.7956180662	-30.6354862633	1038.8627849557	84.6894994728	0.0000000000	0.0000000000	0.0106666667	0.0100000000	640	360	0.0000000000	-0.0000000000	10.4275919095	36.2503399927	0.9977881623	0.0340770376	-0.0570748515	-0.0293792532	0.9962633693	0.0812167375	
#timeindex 124
-2.7282674631	-1.3395916473	15.6746302308	0.0644887392	-0.0817235500	0.9945664703	975.1838469570	31.9191564357	-60.6091516445	-28.5786962327	1038.7133486533	87.2041728163	0.0000000000	0.0000000000	0.0106666667	0.0100000000	640	360	-0.0000000000	0.0000000000	10.4275919095	36.2503399927	0.9975420140	0.0326509711	-0.0619987456	-0.0274068035	0.9961200608	0.0836282946	
#timeindex 125
-2.7370524082	-1.3450912643	15.8301645188	0.0677954932	-0.0811425734	0.9943941140	975.2146199090	20.8585660814	-64.7858203106	-16.5170636319	1039.0825221637	85.9152433991	0.0000000000	0.0000000000	0.0106666667	0.0100000000	640	360	-0.0000000000	0.0000000000	10.4275919095	36.2503399927	0.9975734925	0.0213367931	-0.0662711732	-0.0158397680	0.9964740960	0.0823922188	
#timeindex 126
-2.7493185875	-1.3569228409	15.9434979274	0.0700954453	-0.0792159922	0.9943899915	975.1529958277	12.9781528506	-67.7055348796	-8.0447831250	1039.3901107405	83.3679162792	0.0000000000	0.0000000000	0.0106666667	0.0100000000	640	360	0.0000000000	0.0000000000	10.4275919095	36.2503399927	0.9975104555	0.0132757047	-0.0692578285	-0.0077149002	0.9967690717	0.0799493469	
#timeindex 127
-2.7671024995	-1.3758254428	16.0811489571	0.0772125534	-0.0777977242	0.9939747158	974.6560756794	10.7725295173	-74.8687112584	-5.2085403919	1039.5352535730	81.7683189954	0.0000000000	0.0000000000	0.0106666667	0.0100000000	640	360	-0.0000000000	0.0000000000	10.4275919095	36.2503399927	0.9970021424	0.0110195127	-0.0765852359	-0.0049949599	0.9969082628	0.0784153424	
#timeindex 128
-2.7884164930	-1.4020211799	16.2317597449	0.0814090439	-0.0750190058	0.9938534682	974.3409608046	7.3518482568	-79.2557859221	-1.4517009326	1039.7912329666	78.6054369346	0.0000000000	0.0000000000	0.0106666667	0.0100000000	640	360	0.0000000000	0.0000000000	10.4275919095	36.2503399927	0.9966798029	0.0075204050	-0.0810728936	-0.0013921728	0.9971537456	0.0753821569	
#timeindex 129
-2.7923273223	-1.4129831577	16.4019404829	0.0777495503	-0.0730651429	0.9942919553	974.6260461340	3.8803493544	-75.9266110308	1.8020144410	1039.9638367329	76.2804125392	0.0000000000	0.0000000000	0.0106666667	0.0100000000	640	360	0.0000000000	0.0000000000	10.4275919095	36.2503399927	0.9969714244	0.0039693146	-0.0776673903	0.0017281214	0.9973192716	0.0731524720	
#timeindex 130
-2.8274175219	-1.4347677477	16.7083981439	0.0682963484	-0.0714217079	0.9951052951	975.3018432517	2.6574778340	-66.7464571194	2.2641874157	1040.0923390713	74.4951673993	0.0000000000	0.0000000000	0.0106666667	0.0100000000	640	360	0.0000000000	0.0000000000	10.4275919095	36.2503399927	0.9976627156	0.0027184062	-0.0682767618	0.0021713426	0.9974425046	0.0714404323	
#timeindex 131
-2.8578190619	-1.4521786750	16.9245278258	0.0602610917	-0.0695286159	0.9957581897	975.8077770765	1.9648774836	-58.9165395286	2.2824987767	1040.2335579838	72.4959678124	0.0000000000	0.0000000000	0.0106666667	0.0100000000	640	360	0.0000000000	0.0000000000	10.4275919095	36.2503399927	0.9981802490	0.0020099265	-0.0602673267	0.0021889031	0.9975779327	0.0695232115	
#timeindex 132
-2.8836991517	-1.4646727787	17.0598692307	0.0557139266	-0.0693994797	0.9960319626	976.0654342485	1.4113020156	-54.4987474017	2.5349149861	1040.2439566427	72.3382000037	0.0000000000	0.0000000000	0.0106666667	0.0100000000	640	360	-0.0000000000	0.0000000000	10.4275919095	36.2503399927	0.9984438135	0.0014436591	-0.0557482473	0.0024309687	0.9975879049	0.0693719131	
#timeindex 133
-2.9062710228	-1.4749633506	17.1784181618	0.0525850845	-0.0698143001	0.9961730635	976.2331657240	2.1751821037	-51.3800729836	1.5148864167	1040.2122761008	72.8207118460	0.0000000000	0.0000000000	0.0106666667	0.0100000000	640	360	-0.0000000000	0.0000000000	10.4275919095	36.2503399927	0.9986153906	0.0022250528	-0.0525580706	0.0014527673	0.9975575235	0.0698346392	
#timeindex 134
-2.9321254985	-1.4836164570	17.3163221266	0.0501593785	-0.0696201281	0.9963117356	976.3561055782	3.0351950977	-48.9426181102	0.4089502358	1040.2239759267	72.6680326721	0.0000000000	0.0000000000	0.0106666667	0.0100000000	640	360	-0.0000000000	0.0000000000	10.4275919095	36.2503399927	0.9987411491	0.0031047834	-0.0500647319	0.0003921809	0.9975687435	0.0696882207	
#timeindex 135
-2.9574329887	-1.4905505229	17.4515721806	0.0481794301	-0.0697682090	0.9963990865	976.4503069181	4.7931314300	-46.8792191394	-1.6055387957	1040.2056617261	72.9131940298	0.0000000000	0.0000000000	0.0106666667	0.0100000000	640	360	-0.0000000000	0.0000000000	10.4275919095	36.2503399927	0.9988375102	0.0049030242	-0.0479540251	-0.0015397024	0.9975511803	0.0699233291	
#timeindex 136
-2.9883313977	-1.4967343803	17.6138420413	0.0469762991	-0.0711099525	0.9963616823	976.5004769160	6.9647561473	-45.5428142653	-3.9475933764	1040.0928968770	74.4171531167	0.0000000000	0.0000000000	0.0106666667	0.0100000000	640	360	-0.0000000000	0.0000000000	10.4275919095	36.2503399927	0.9988888305	0.0071244380	-0.0465869803	-0.0037857191	0.9974430395	0.0713656171	
#timeindex 137
-3.0114199685	-1.4996655233	17.7498296574	0.0442357525	-0.0742081158	0.9962611875	976.6160835070	8.3792662395	-42.7393321098	-5.5214212574	1039.8456593318	77.6997360451	0.0000000000	0.0000000000	0.0106666667	0.0100000000	640	360	0.0000000000	-0.0000000000	10.4275919095	36.2503399927	0.9990070876	0.0085713788	-0.0437192223	-0.0052950109	0.9972059401	0.0745135950	
#timeindex 138
-3.0457404673	-1.5048946475	17.8739704042	0.0429190399	-0.0751200636	0.9962504364	976.6609285283	10.1320605004	-41.3111269856	-7.4568268888	1039.7567041984	78.7218020160	0.0000000000	0.0000000000	0.0106666667	0.0100000000	640	360	0.0000000000	-0.0000000000	10.4275919095	36.2503399927	0.9990529608	0.0103643596	-0.0422582726	-0.0071510536	0.9971206327	0.0754937503	
#timeindex 139
-3.0816376906	-1.5103928946	18.0290589065	0.0430462423	-0.0733745454	0.9963750283	976.5952404469	15.9796310706	-41.0149351307	-13.7730700184	1039.8086925047	77.1681011775	0.0000000000	0.0000000000	0.0106666667	0.0100000000	640	360	0.0000000000	-0.0000000000	10.4275919095	36.2503399927	0.9989857667	0.0163459982	-0.0419552899	-0.0132082941	0.9971704892	0.0740037603	
#timeindex 140
-3.1255472313	-1.5120076801	18.1580689688	0.0457865777	-0.0739131192	0.9962130496	976.3431341107	23.9263712293	-43.0981485812	-22.0269276291	1039.5936936300	78.1440780180	0.0000000000	0.0000000000	0.0106666667	0.0100000000	640	360	-0.0000000000	0.0000000000	10.4275919095	36.2503399927	0.9987278803	0.0244749343	-0.0440862654	-0.0211236955	0.9969643065	0.0749397164	
#timeindex 141
-3.1548619949	-1.5160267634	18.3014832433	0.0514342625	-0.0779526742	0.9956293975	976.0355089619	26.2969718455	-48.3631232830	-23.9061370082	1039.2076451632	82.5996195695	0.0000000000	0.0000000000	0.0106666667	0.0100000000	640	360	-0.0000000000	0.0000000000	10.4275919095	36.2503399927	0.9984132021	0.0268998859	-0.0494719509	-0.0229258464	0.9965940882	0.0792125548	
#timeindex 142
-3.1851523048	-1.5340996753	18.4289991358	0.0536493858	-0.0819883453	0.9951882509	975.9639700743	24.7469335222	-50.5742580224	-21.8467816064	1038.9132311020	86.7683506818	0.0000000000	0.0000000000	0.0106666667	0.0100000000	640	360	-0.0000000000	0.0000000000	10.4275919095	36.2503399927	0.9983400231	0.0253143097	-0.0517337806	-0.0209509365	0.9963117469	0.0832103437	
#timeindex 143
-3.2100361307	-1.5476490703	18.5638046680	0.0501049310	-0.0823645210	0.9953419420	976.0473987186	28.6444362377	-46.7633286216	-26.3033276063	1038.7669191611	87.2820309038	0.0000000000	0.0000000000	0.0106666667	0.0100000000	640	360	-0.0000000000	0.0000000000	10.4275919095	36.2503399927	0.9984253645	0.0293011710	-0.0478354775	-0.0252247382	0.9961714346	0.0837029601	
#timeindex 144
-3.2537472048	-1.5836535832	18.6724536515	0.0443876299	-0.0818189435	0.9956582741	976.1277911221	34.5818576733	-40.6751483762	-33.1772960622	1038.6081975987	86.8274680746	0.0000000000	0.0000000000	0.0106666667	0.0100000000	640	360	0.0000000000	-0.0000000000	10.4275919095	36.2503399927	0.9985076001	0.0353747204	-0.0416077128	-0.0318168340	0.9960192215	0.0832670369	
#timeindex 145
-3.2868364082	-1.5943119999	18.8403055513	0.0386590866	-0.0768614567	0.9962920212	976.2694804116	36.6748037424	-35.0527825400	-36.1009135151	1038.9382425918	81.5523293903	0.0000000000	0.0000000000	0.0106666667	0.0100000000	640	360	0.0000000000	0.0000000000	10.4275919095	36.2503399927	0.9986525379	0.0375156517	-0.0358564422	-0.0346205661	0.9963357327	0.0782082096	
#timeindex 146
-3.3135119308	-1.6154966739	18.9488962650	0.0327788166	-0.0710310271	0.9969353752	976.4877144517	35.6869809166	-29.5638308487	-35.7095087360	1039.4284942922	75.2327491508	0.0000000000	0.0000000000	0.0106666667	0.0100000000	640	360	0.0000000000	0.0000000000	10.4275919095	36.2503399927	0.9988757754	0.0365051810	-0.0302416446	-0.0342452112	0.9968058813	0.0721477689	
#timeindex 147
-3.3419534995	-1.6320301137	19.0853064215	0.0290821915	-0.0693770307	0.9971665125	976.6208500822	34.7589724599	-26.0646541259	-35.0423413730	1039.5857327170	73.3503166169	0.0000000000	0.0000000000	0.0106666667	0.0100000000	640	360	0.0000000000	0.0000000000	10.4275919095	36.2503399927	0.9990119635	0.0355558959	-0.0266622418	-0.0336054016	0.9969566720	0.0703425271	
#timeindex 148
-3.3623120538	-1.6404162124	19.2027784514	0.0285158044	-0.0689131844	0.9972150329	976.7284846668	31.8649957605	-25.7279315551	-32.0034763800	1039.7247793880	72.7660012066	0.0000000000	0.0000000000	0.0106666667	0.0100000000	640	360	0.0000000000	-0.0000000000	10.4275919095	36.2503399927	0.9991220658	0.0325955687	-0.0263177992	-0.0306911477	0.9970900170	0.0697821720	
#timeindex 149
-3.3812173869	-1.6486668163	19.3416973519	0.0287721966	-0.0661466797	0.9973949957	976.8007202875	29.1075185449	-26.2477120238	-29.1151939557	1040.0121115229	69.8129190912	0.0000000000	0.0000000000	0.0106666667	0.0100000000	640	360	0.0000000000	0.0000000000	10.4275919095	36.2503399927	0.9991959576	0.0297748704	-0.0268494967	-0.0279213017	0.9973655668	0.0669501834	
#timeindex 150
-3.4089630214	-1.6533566272	19.4395230429	0.0271781821	-0.0633981439	0.9976181743	976.8415695795	29.0340790730	-24.7670622077	-29.2210551290	1040.2005621201	66.9003049883	0.0000000000	0.0000000000	0.0106666667	0.0100000000	640	360	0.0000000000	0.0000000000	10.4275919095	36.2503399927	0.9992377434	0.0296997472	-0.0253348999	-0.0280228219	0.9975462898	0.0641570034	
#timeindex 151
-3.4263596030	-1.6644891651	19.5860044674	0.0240784280	-0.0620049304	0.9977853566	976.8956011822	29.6398967670	-21.7324201844	-30.1085202824	1040.2724355572	65.3717609654	0.0000000000	0.0000000000	0.0106666667	0.0100000000	640	360	-0.0000000000	0.0000000000	10.4275919095	36.2503399927	0.9992930138	0.0303194545	-0.0222306822	-0.0288738959	0.9976152160	0.0626911386	
#timeindex 152
-3.4404408523	-1.6725186162	19.7190833108	0.0237729442	-0.0606235307	0.9978775650	976.8913410046	29.9830103571	-21.4514367026	-30.5268389683	1040.3497774929	63.9310791283	0.0000000000	0.0000000000	0.0106666667	0.0100000000	640	360	-0.0000000000	0.0000000000	10.4275919095	36.2503399927	0.9992886560	0.0306704347	-0.0219432566	-0.0292750610	0.9976893865	0.0613095331	
#timeindex 153
-3.4545126379	-1.6803388830	19.8568392361	0.0257928582	-0.0617812434	0.9977563863	976.7951999929	31.6958308372	-23.2883824029	-32.1983279104	1040.2179443863	65.2428246016	0.0000000000	0.0000000000	0.0106666667	0.0100000000	640	360	-0.0000000000	0.0000000000	10.4275919095	36.2503399927	0.9991903107	0.0324225253	-0.0238223182	-0.0308780092	0.9975629593	0.0625674894	
#timeindex 154
-3.4680437063	-1.6868314754	19.9911934114	0.0280618250	-0.0656266672	0.9974495850	976.7185600636	32.4726221383	-25.3420680947	-32.7751338718	1039.9345781721	69.3440266152	0.0000000000	0.0000000000	0.0106666667	0.0100000000	640	360	-0.0000000000	0.0000000000	10.4275919095	36.2503399927	0.9991119136	0.0332171262	-0.0259230890	-0.0314311628	0.9972912128	0.0665005183	
#timeindex 155
-3.4808479929	-1.6939888438	20.1262906036	0.0278082344	-0.0700002852	0.9971592963	976.7603585800	31.4391640879	-25.0323399760	-31.5707560544	1039.6605621175	73.8642893762	0.0000000000	0.0000000000	0.0106666667	0.0100000000	640	360	-0.0000000000	0.0000000000	10.4275919095	36.2503399927	0.9991546705	0.0321599739	-0.0256062597	-0.0302761715	0.9970284330	0.0708354240	
#timeindex 156
-3.4952013335	-1.7007677573	20.2520260097	0.0243997154	-0.0741730198	0.9969468476	976.8877663684	29.9338100696	-21.6816999084	-30.1165017918	1039.3964869219	78.0683649099	0.0000000000	0.0000000000	0.0106666667	0.0100000000	640	360	0.0000000000	0.0000000000	10.4275919095	36.2503399927	0.9992849994	0.0306201064	-0.0221787991	-0.0288815501	0.9967751864	0.0748671079	
#timeindex 157
-3.5062883232	-1.7079601175	20.3862390196	0.0184329274	-0.0837188455	0.9963189159	977.0989421654	26.5000622941	-15.8505865533	-26.7472218968	1038.7139535549	87.7760737138	0.0000000000	0.0000000000	0.0106666667	0.0100000000	640	360	0.0000000000	0.0000000000	10.4275919095	36.2503399927	0.9995010168	0.0271076327	-0.0162139950	-0.0256504303	0.9961206409	0.0841767442	
#timeindex 158
-3.5184674581	-1.7158329978	20.4915091708	0.0134584471	-0.0936236260	0.9955166934	977.2828905089	21.6588983219	-11.1750265547	-21.8832515556	1037.9219522017	97.9074805339	0.0000000000	0.0000000000	0.0106666667	0.0100000000	640	360	0.0000000000	0.0000000000	10.4275919095	36.2503399927	0.9996891826	0.0221554747	-0.0114312378	-0.0209859110	0.9953611162	0.0938927045	
#timeindex 159
-3.5173193225	-1.7360788411	20.6209540679	0.0123385217	-0.1006173899	0.9948486828	977.3915587941	16.5018778198	-10.4530379758	-16.3894549495	1037.3180585733	105.1159427945	0.0000000000	0.0000000000	0.0106666667	0.0100000000	640	360	-0.0000000000	0.0000000000	10.4275919095	36.2503399927	0.9998003423	0.0168802185	-0.0106926961	-0.0157173920	0.9947819857	0.1008055778	
#timeindex 160
-3.5225591568	-1.7544940814	20.7490276752	0.0127934978	-0.1017639793	0.9947263035	977.4766689564	8.9004252468	-11.6610999869	-8.1779276463	1037.3023359574	106.2248352418	0.0000000000	0.0000000000	0.0106666667	0.0100000000	640	360	0.0000000000	0.0000000000	10.4275919095	36.2503399927	0.9998874038	0.0091044865	-0.0119284555	-0.0078425851	0.9947669078	0.1018689993	
#timeindex 161
-3.5330885918	-1.7697626204	20.8902722798	0.0111584557	-0.0967145188	0.9952496123	977.5232457145	3.3136983811	-10.6377002828	-2.4204127621	1037.8648870251	100.8828438728	0.0000000000	0.0000000000	0.0106666667	0.0100000000	640	360	0.0000000000	0.0000000000	10.4275919095	36.2503399927	0.9999350484	0.0033896720	-0.0108815922	-0.0023211618	0.9953063910	0.0967460606	
#timeindex 162
-3.5574016013	-1.7796330440	21.0300490519	0.0050254607	-0.0893531549	0.9959873285	977.5686474882	3.7783385796	-4.5935587680	-3.5762436054	1038.5803417117	93.1923526748	0.0000000000	0.0000000000	0.0106666667	0.0100000000	640	360	0.0000000000	0.0000000000	10.4275919095	36.2503399927	0.9999814911	0.0038649650	-0.0046988759	-0.0034295968	0.9959925079	0.0893709243	
#timeindex 163
-3.5748411548	-1.7758490624	21.1879305063	-0.0046595322	-0.0858447654	0.9962976287	977.5497870339	6.7590592893	5.1542374845	-7.6549323201	1038.8848545345	89.4784406177	0.0000000000	0.0000000000	0.0106666667	0.0100000000	640	360	0.0000000000	0.0000000000	10.4275919095	36.2503399927	0.9999621983	0.0069140251	0.0052724094	-0.0073410356	0.9962845339	0.0858093042	
#timeindex 164
-3.5959948007	-1.8065317019	21.2875781607	-0.0108549307	-0.0867516332	0.9961708310	977.5118197746	4.8777957948	11.0763931665	-6.2080139600	1038.8149283650	90.3976519280	0.0000000000	0.0000000000	0.0106666667	0.0100000000	640	360	0.0000000000	0.0000000000	10.4275919095	36.2503399927	0.9999233605	0.0049896297	0.0113303431	-0.0059534493	0.9962174751	0.0866908225	
#timeindex 165
-3.6128430169	-1.8143420465	21.4072716427	-0.0109468760	-0.0871130724	0.9961382828	977.5233121348	2.1365781375	10.9291556580	-3.2857595792	1038.7925692687	90.8071149278	0.0000000000	0.0000000000	0.0106666667	0.0100000000	640	360	0.0000000000	0.0000000000	10.4275919095	36.2503399927	0.9999351164	0.0021855637	0.0111797298	-0.0031510243	0.9961960329	0.0870834951	
#timeindex 166
-3.6357549559	-1.8229983881	21.5385349714	-0.0080397993	-0.0832176283	0.9964989654	977.5516909447	1.9361023193	8.0486157549	-2.7723847170	1039.1402217315	86.7562318690	0.0000000000	0.0000000000	0.0106666667	0.0100000000	640	360	0.0000000000	0.0000000000	10.4275919095	36.2503399927	0.9999641458	0.0019804916	0.0082331474	-0.0026587008	0.9965294296	0.0831987218	
#timeindex 167
-3.6569241691	-1.8318967476	21.6654522205	-0.0041612180	-0.0784678637	0.9969079590	977.5780485763	0.3479806028	4.1079225624	-0.7138608429	1039.5439264971	81.8208139236	0.0000000000	0.0000000000	0.0106666667	0.0100000000	640	360	0.0000000000	0.0000000000	10.4275919095	36.2503399927	0.9999911078	0.0003559588	0.0042021054	-0.0006845884	0.9969165801	0.0784656847	
#timeindex 168
-3.6835270751	-1.8367106262	21.7763187922	-0.0012633730	-0.0752757856	0.9971619527	977.5811328747	-3.1567873459	1.0002587397	3.2773685033	1039.7951734612	78.4983210519	0.0000000000	0.0000000000	0.0106666667	0.0100000000	640	360	0.0000000000	0.0000000000	10.4275919095	36.2503399927	0.9999942628	-0.0032291634	0.0010231918	0.0031429773	0.9971575245	0.0752794334	
#timeindex 169
-3.7164487240	-1.8478736981	21.9453707343	0.0005266655	-0.0746786068	0.9972075152	977.5773584218	-4.2017833134	-0.8309599945	4.5355784874	1039.8377878585	77.8686957306	0.0000000000	0.0000000000	0.0106666667	0.0100000000	640	360	0.0000000000	0.0000000000	10.4275919095	36.2503399927	0.9999904018	-0.0042981181	-0.0008500115	0.0043495934	0.9971983914	0.0746756264	
#timeindex 170
-3.7464443947	-1.8485768741	22.0981663087	0.0028424392	-0.0755560828	0.9971375025	977.5795011735	-2.3194833298	-2.9624413861	2.7057858999	1039.7755763846	78.7791836857	0.0000000000	0.0000000000	0.0106666667	0.0100000000	640	360	0.0000000000	0.0000000000	10.4275919095	36.2503399927	0.9999925937	-0.0023726624	-0.0030303617	0.0025948329	0.9971387310	0.0755487790	
#timeindex 171
-3.7618988504	-1.8552159556	22.1794264025	0.0062805087	-0.0743207626	0.9972146105	977.5668452132	1.5505227559	-6.0412081238	-1.1703645347	1039.8740081913	77.5074682874	0.0000000000	0.0000000000	0.0106666667	0.0100000000	640	360	0.0000000000	0.0000000000	10.4275919095	36.2503399927	0.9999796475	0.0015860718	-0.0061797157	-0.0011223728	0.9972331265	0.0743292113	
#timeindex 172
-3.7919197521	-1.8625633213	22.3038378839	0.0106198318	-0.0711954568	0.9974058482	977.5125084086	6.8355583242	-9.9200919214	-6.5189977306	1040.0875118115	74.3115115425	0.0000000000	0.0000000000	0.0106666667	0.0100000000	640	360	0.0000000000	0.0000000000	10.4275919095	36.2503399927	0.9999240649	0.0069922781	-0.0101475312	-0.0062516809	0.9974378752	0.0712643074	
#timeindex 173
-3.8242544948	-1.8724702275	22.4546733372	0.0125913085	-0.0696343364	0.9974931168	977.4727947443	9.2788413856	-11.6908431630	-9.0042627295	1040.1808935176	72.7280023033	0.0000000000	0.0000000000	0.0106666667	0.0100000000	640	360	0.0000000000	0.0000000000	10.4275919095	36.2503399927	0.9998834408	0.0094915786	-0.0119588806	-0.0086350356	0.9975274278	0.0697457313	
#timeindex 174
-3.8520241289	-1.8829061242	22.5894623792	0.0139676705	-0.0699296464	0.9974541336	977.4866402885	3.9903080249	-13.4083062287	-3.2453451951	1040.1977309323	72.9717657958	0.0000000000	0.0000000000	0.0106666667	0.0100000000	640	360	0.0000000000	0.0000000000	10.4275919095	36.2503399927	0.9998976037	0.0040817943	-0.0137157202	-0.0031122672	0.9975435747	0.0699794990	
#timeindex 175
-3.8786230012	-1.8977073791	22.7286087064	0.0160996437	-0.0694334839	0.9974566621	977.4550953999	4.1945120599	-15.4848223092	-3.3159240932	1040.2329567376	72.4646856735	0.0000000000	0.0000000000	0.0106666667	0.0100000000	640	360	0.0000000000	0.0000000000	10.4275919095	36.2503399927	0.9998653356	0.0042906802	-0.0158398448	-0.0031799519	0.9975773561	0.0694932121	
#timeindex 176
-3.9173413204	-1.9128812364	22.8650771527	0.0203793685	-0.0666189223	0.9975703487	977.2259195386	18.8540496126	-18.7046564178	-18.7329672463	1040.2483097237	69.8517026322	0.0000000000	0.0000000000	0.0106666667	0.0100000000	640	360	0.0000000000	0.0000000000	10.4275919095	36.2503399927	0.9996309054	0.0192863189	-0.0191335005	-0.0179648066	0.9975920795	0.0669873766	
#timeindex 177
-3.9489734980	-1.9272385190	22.9996099036	0.0262423674	-0.0594902359	0.9978838860	976.7476664032	32.8131851681	-23.7303230389	-33.4208279600	1040.3237299978	62.8992477489	0.0000000000	0.0000000000	0.0106666667	0.0100000000	640	360	0.0000000000	-0.0000000000	10.4275919095	36.2503399927	0.9991416873	0.0335654973	-0.0242743912	-0.0320503797	0.9976644071	0.0603200128	
#timeindex 178
-3.9805446387	-1.9399476994	23.1333580194	0.0277854886	-0.0501132944	0.9983569624	976.5288370159	37.7906869999	-25.2810527663	-38.8924572155	1040.6685971337	53.3195838024	0.0000000000	0.0000000000	0.0106666667	0.0100000000	640	360	0.0000000000	0.0000000000	10.4275919095	36.2503399927	0.9989178408	0.0386571190	-0.0258606748	-0.0372976403	0.9979951327	0.0511331708	
#timeindex 179
-4.0056200962	-1.9620860925	23.2652439189	0.0246209466	-0.0482060199	0.9985339196	976.6388370620	36.8096392766	-22.3040259833	-38.0591840708	1040.8065624122	51.1852366704	0.0000000000	0.0000000000	0.0106666667	0.0100000000	640	360	0.0000000000	-0.0000000000	10.4275919095	36.2503399927	0.9990303628	0.0376535787	-0.0228153933	-0.0364985362	0.9981274406	0.0490863443	
#timeindex 180
-4.0246362863	-1.9691652434	23.3945965265	0.0247625708	-0.0509770099	0.9983927882	976.7257267094	34.3170091307	-22.4729803270	-35.3239990284	1040.7599044014	54.0163566748	0.0000000000	0.0000000000	0.0106666667	0.0100000000	640	360	0.0000000000	-0.0000000000	10.4275919095	36.2503399927	0.9991192446	0.0351037997	-0.0229882213	-0.0338755096	0.9980826958	0.0518013719	
#timeindex 181
-4.0443865772	-1.9779330107	23.5262966074	0.0309481821	-0.0518119022	0.9981772071	976.6571749984	31.5626045954	-28.6426551116	-32.0224448619	1040.8142606524	55.0178893918	0.0000000000	0.0000000000	0.0106666667	0.0100000000	640	360	0.0000000000	0.0000000000	10.4275919095	36.2503399927	0.9990491212	0.0322862445	-0.0292993490	-0.0307093384	0.9981348232	0.0527618360	
#timeindex 182
-4.0708873926	-1.9863008466	23.6394838083	0.0371092556	-0.0507663106	0.9980208840	976.5075834346	29.9804629466	-34.7843141766	-30.0322739573	1040.9235004161	54.0653225999	0.0000000000	0.0000000000	0.0106666667	0.0100000000	640	360	0.0000000000	-0.0000000000	10.4275919095	36.2503399927	0.9988960999	0.0306678289	-0.0355818187	-0.0288007761	0.9982395835	0.0518483300	
#timeindex 183
-4.0904134914	-1.9987128932	23.7590199749	0.0388283991	-0.0496522031	0.9980115301	976.4574408596	29.5466502465	-36.5198415342	-29.5195808321	1040.9960443545	52.9392131711	0.0000000000	0.0000000000	0.0106666667	0.0100000000	640	360	0.0000000000	-0.0000000000	10.4275919095	36.2503399927	0.9988448077	0.0302240701	-0.0373571367	-0.0283091063	0.9983091527	0.0507683976	
#timeindex 184
-4.1094637330	-2.0013932034	23.8815565337	0.0385620653	-0.0496239679	0.9980232607	976.4462846285	30.2716173496	-36.2231913941	-30.3085224206	1040.9738090410	52.9306401326	0.0000000000	0.0000000000	0.0106666667	0.0100000000	640	360	0.0000000000	0.0000000000	10.4275919095	36.2503399927	0.9988333957	0.0309656587	-0.0370536852	-0.0290656967	0.9982878291	0.0507601761	
#timeindex 185
-4.1310770297	-2.0073872340	24.0043117342	0.0383209393	-0.0510611035	0.9979600540	976.3829930454	32.6963860815	-35.8194696406	-32.8540859436	1040.8147841712	54.5153592384	0.0000000000	0.0000000000	0.0106666667	0.0100000000	640	360	0.0000000000	0.0000000000	10.4275919095	36.2503399927	0.9987686530	0.0334460204	-0.0366407073	-0.0315068774	0.9981353252	0.0522799125	
#timeindex 186
-4.1507919644	-2.0216388037	24.1172320197	0.0371837889	-0.0548959682	0.9977994781	976.3902687123	33.8527656492	-34.5234789423	-34.0086102360	1040.5604419320	58.5159074226	0.0000000000	0.0000000000	0.0106666667	0.0100000000	640	360	0.0000000000	0.0000000000	10.4275919095	36.2503399927	0.9987760955	0.0346289124	-0.0353150032	-0.0326140594	0.9978914125	0.0561164149	
#timeindex 187
-4.1675578061	-2.0168439305	24.2442876490	0.0384763115	-0.0602213219	0.9974432143	976.4067980599	32.0797803867	-35.7279941964	-31.8359170386	1040.3040177061	64.0371410682	0.0000000000	0.0000000000	0.0106666667	0.0100000000	640	360	0.0000000000	0.0000000000	10.4275919095	36.2503399927	0.9987930038	0.0328152777	-0.0365471346	-0.0305304593	0.9976455031	0.0614112459	
#timeindex 188
-4.1788081734	-2.0207702990	24.3808282529	0.0400084790	-0.0654749929	0.9970518276	976.4830295485	27.5682349450	-37.3727521373	-26.7093102450	1040.1060439466	69.3740614165	0.0000000000	0.0000000000	0.0106666667	0.0100000000	640	360	-0.0000000000	-0.0000000000	10.4275919095	36.2503399927	0.9988709831	0.0282002955	-0.0382296021	-0.0256140732	0.9974556475	0.0665293215	
#timeindex 189
-4.1929760732	-2.0273533888	24.5097913646	0.0403529154	-0.0691360783	0.9967907729	976.5187971690	25.7290909252	-37.7477129406	-24.5725776977	1039.9020339531	73.1209854344	0.0000000000	0.0000000000	0.0106666667	0.0100000000	640	360	-0.0000000000	-0.0000000000	10.4275919095	36.2503399927	0.9989075708	0.0263189851	-0.0386131597	-0.0235649591	0.9972600031	0.0701225998	
#timeindex 190
-4.2169297740	-2.0309083803	24.6483117010	0.0387389151	-0.0794537469	0.9960855378	976.6139074671	24.5667415706	-36.0220505644	-23.0490550416	1039.1322073384	83.7838113194	0.0000000000	0.0000000000	0.0106666667	0.0100000000	640	360	-0.0000000000	-0.0000000000	10.4275919095	36.2503399927	0.9990048617	0.0251299865	-0.0368479328	-0.0221039097	0.9965217438	0.0803481878	
#timeindex 191
-4.2153046970	-2.0310321106	24.7664431398	0.0380440521	-0.0870374912	0.9954783399	976.7300622192	20.2458385718	-35.5574008384	-18.1967645944	1038.5774597173	91.5011925108	0.0000000000	0.0000000000	0.0106666667	0.0100000000	640	360	-0.0000000000	0.0000000000	10.4275919095	36.2503399927	0.9991236795	0.0207100175	-0.0363726300	-0.0174505914	0.9959897441	0.0877491115	
#timeindex 192
-4.2268567266	-2.0342741195	24.8993729267	0.0403175651	-0.0895803614	0.9951632292	976.6688575962	18.9856298981	-37.8592873105	-16.5358422602	1038.3694170567	94.1395238333	0.0000000000	0.0000000000	0.0106666667	0.0100000000	640	360	0.0000000000	0.0000000000	10.4275919095	36.2503399927	0.9990610716	0.0194209159	-0.0387272921	-0.0158577766	0.9957902324	0.0902792559	
#timeindex 193
-4.2477543544	-2.0445556887	25.0249344962	0.0454121237	-0.0879960653	0.9950851378	976.4187491786	21.5063006753	-42.6584394959	-18.8232803648	1038.4607956564	92.6908318361	0.0000000000	0.0000000000	0.0106666667	0.0100000000	640	360	0.0000000000	0.0000000000	10.4275919095	36.2503399927	0.9988052290	0.0219993784	-0.0436364751	-0.0180514164	0.9958778639	0.0888899687	
#timeindex 194
-4.2654268800	-2.0671731647	25.1480594488	0.0482235664	-0.0816766246	0.9954915452	976.3133529490	20.1171514753	-45.6439946377	-17.3849672467	1039.0536582116	86.0929066545	0.0000000000	0.0000000000	0.0106666667	0.0100000000	640	360	0.0000000000	-0.0000000000	10.4275919095	36.2503399927	0.9986974163	0.0205783800	-0.0466904804	-0.0166720825	0.9964464157	0.0825625968	
#timeindex 195
-4.2732206596	-2.0805619233	25.2841314143	0.0468552446	-0.0754759248	0.9960461690	976.4314357206	16.0631988287	-44.7153458736	-13.4664059459	1039.6436686273	79.4130247474	0.0000000000	0.0000000000	0.0106666667	0.0100000000	640	360	0.0000000000	0.0000000000	10.4275919095	36.2503399927	0.9988182064	0.0164314819	-0.0457405404	-0.0129142050	0.9970122322	0.0761566289	
#timeindex 196
-4.2869413217	-2.0959481644	25.4125252560	0.0411244990	-0.0723245416	0.9965329579	976.7071577254	13.0261691749	-39.3609469040	-10.8098607536	1039.9355436322	75.9206316248	0.0000000000	0.0000000000	0.0106666667	0.0100000000	640	360	0.0000000000	0.0000000000	10.4275919095	36.2503399927	0.9991002499	0.0133248219	-0.0402633805	-0.0103665936	0.9972921386	0.0728074442	
#timeindex 197
-4.2956019059	-2.1073466667	25.5436601916	0.0368377463	-0.0696260295	0.9968927708	976.8993278869	9.3285598466	-35.4474021871	-7.2869461348	1040.1809921861	72.9186822158	0.0000000000	0.0000000000	0.0106666667	0.0100000000	640	360	-0.0000000000	0.0000000000	10.4275919095	36.2503399927	0.9992968260	0.0095424370	-0.0362601094	-0.0069881390	0.9975275224	0.0699285922	
#timeindex 198
-4.3103164091	-2.1155482409	25.6613978792	0.0375322278	-0.0654047437	0.9971527222	976.8870204028	7.0160780466	-36.3092439172	-4.9293914982	1040.4995397169	68.4334658902	0.0000000000	0.0000000000	0.0106666667	0.0100000000	640	360	-0.0000000000	0.0000000000	10.4275919095	36.2503399927	0.9992842363	0.0071769366	-0.0371417107	-0.0047272578	0.9978330076	0.0656272958	
#timeindex 199
-4.3237488021	-2.1251082663	25.7868116111	0.0403555931	-0.0614216441	0.9972957474	976.7795431768	7.0214989998	-39.0929630455	-4.9081141655	1040.7634178678	64.2973463595	0.0000000000	0.0000000000	0.0106666667	0.0100000000	640	360	-0.0000000000	-0.0000000000	10.4275919095	36.2503399927	0.9991742949	0.0071824818	-0.0399892525	-0.0047068529	0.9980860652	0.0616607812	
#timeindex 200
-4.3439571688	-2.1298437906	25.9041120262	0.0422367805	-0.0595426282	0.9973318053	976.7064559472	6.3894354630	-40.9818399051	-4.1943687977	1040.8867774995	62.3205744724	0.0000000000	0.0000000000	0.0106666667	0.0100000000	640	360	0.0000000000	0.0000000000	10.4275919095	36.2503399927	0.9990995320	0.0065359269	-0.0419214359	-0.0040223753	0.9982043664	0.0597650685	
#timeindex 201
-4.3616423423	-2.1365441506	26.0406118336	0.0425865874	-0.0604193198	0.9972642019	976.6973858952	4.7118119549	-41.4228486487	-2.3425931207	1040.8420232544	63.1595217720	0.0000000000	0.0000000000	0.0106666667	0.0100000000	640	360	0.0000000000	0.0000000000	10.4275919095	36.2503399927	0.9990902540	0.0048198403	-0.0423725557	-0.0022465332	0.9981614473	0.0605696141	
#timeindex 202
-4.3775225383	-2.1396370793	26.1605111428	0.0401005362	-0.0641602049	0.9971335994	976.7951211634	5.7304528546	-38.9138838714	-3.4317912721	1040.5927495226	67.0945806682	0.0000000000	0.0000000000	0.0106666667	0.0100000000	640	360	0.0000000000	0.0000000000	10.4275919095	36.2503399927	0.9991902301	0.0058618357	-0.0398060676	-0.0032910679	0.9979223953	0.0643433127	
#timeindex 203
-4.4026209651	-2.1509138889	26.2907289585	0.0389107338	-0.0657311839	0.9970784153	976.8281406764	8.4673874943	-37.5622697425	-6.3718792995	1040.4648853403	68.8400452741	0.0000000000	0.0000000000	0.0106666667	0.0100000000	640	360	0.0000000000	0.0000000000	10.4275919095	36.2503399927	0.9992240066	0.0086615204	-0.0384234648	-0.0061105952	0.9977997743	0.0660172031	
#timeindex 204
-4.4307839210	-2.1601327007	26.4070192702	0.0416510006	-0.0639921435	0.9970808391	976.6934057681	11.9729843579	-40.0309374268	-10.0014589863	1040.5435831257	67.1993507369	0.0000000000	0.0000000000	0.0106666667	0.0100000000	640	360	0.0000000000	0.0000000000	10.4275919095	36.2503399927	0.9990861826	0.0122474905	-0.0409487319	-0.0095913410	0.9978752450	0.0644437866	
#timeindex 205
-4.4553744300	-2.1764284265	26.5443936871	0.0474870104	-0.0616796359	0.9969656997	976.3933020243	16.1560068125	-45.5075859884	-14.1867661870	1040.6310941182	65.0568361122	0.0000000000	0.0000000000	0.0106666667	0.0100000000	640	360	0.0000000000	0.0000000000	10.4275919095	36.2503399927	0.9987791984	0.0165264177	-0.0465509443	-0.0136050263	0.9979591675	0.0623891275	
#timeindex 206
-4.4770732516	-2.1801523368	26.6657146622	0.0539876787	-0.0647150981	0.9964423148	976.0456963817	18.4156362877	-51.6865561958	-16.0055666110	1040.3879148802	68.4363844323	0.0000000000	0.0000000000	0.0106666667	0.0100000000	640	360	0.0000000000	-0.0000000000	10.4275919095	36.2503399927	0.9984236231	0.0188378540	-0.0528715806	-0.0153492453	0.9977259600	0.0656300947	
#timeindex 207
-4.5011805324	-2.1810397944	26.8149241871	0.0609421916	-0.0721282299	0.9955318015	975.6614798213	18.8257227948	-58.3618550995	-15.5008729901	1039.8493119904	76.2880173755	0.0000000000	0.0000000000	0.0106666667	0.0100000000	640	360	0.0000000000	0.0000000000	10.4275919095	36.2503399927	0.9980305976	0.0192573426	-0.0596999249	-0.0148652471	0.9972094430	0.0731597650	
#timeindex 208
-4.5315684453	-2.1839333012	26.9414011137	0.0647521521	-0.0782347892	0.9948298732	975.3087677386	25.9563833860	-61.4403036316	-22.4164441470	1039.1943355746	83.1827280557	0.0000000000	0.0000000000	0.0106666667	0.0100000000	640	360	0.0000000000	0.0000000000	10.4275919095	36.2503399927	0.9976697988	0.0265514888	-0.0628489535	-0.0214972396	0.9965813244	0.0797717525	
#timeindex 209
-4.5602214568	-2.1939810171	27.0699549379	0.0641574829	-0.0812263328	0.9946286243	975.1841548658	32.5994240889	-60.2410061684	-29.3665752711	1038.7317180827	86.7222717142	0.0000000000	0.0000000000	0.0106666667	0.0100000000	640	360	-0.0000000000	0.0000000000	10.4275919095	36.2503399927	0.9975423289	0.0333468353	-0.0616221596	-0.0281623749	0.9961376769	0.0831661542	
#timeindex 210
-4.5648270608	-2.1988141728	27.2064990652	0.0657830937	-0.0746191862	0.9950399799	975.0494679433	33.4029140083	-61.9565781477	-30.5216911379	1039.2414916139	79.9517278334	0.0000000000	0.0000000000	0.0106666667	0.0100000000	640	360	-0.0000000000	0.0000000000	10.4275919095	36.2503399927	0.9974045540	0.0341687470	-0.0633770647	-0.0292701243	0.9966265468	0.0766732420	
#timeindex 211
-4.6068483229	-2.2307273479	27.3280166059	0.0699764300	-0.0621046103	0.9956135378	974.8135524754	31.3768012973	-66.5572792948	-28.9126978660	1040.2080111569	66.9184558435	0.0000000000	0.0000000000	0.0106666667	0.0100000000	640	360	0.0000000000	0.0000000000	10.4275919095	36.2503399927	0.9971632297	0.0320961813	-0.0680832467	-0.0277271091	0.9975534334	0.0641744100	
#timeindex 212
-4.6230724143	-2.2427025910	27.4198775686	0.0744288637	-0.0562101130	0.9956408828	974.5714141885	28.4656908880	-71.2467561750	-25.9592718831	1040.6676888047	60.6927342153	0.0000000000	0.0000000000	0.0106666667	0.0100000000	640	360	-0.0000000000	0.0000000000	10.4275919095	36.2503399927	0.9969155399	0.0291183275	-0.0728802398	-0.0248947908	0.9979942616	0.0582039792	
#timeindex 213
-4.6336543997	-2.2465001223	27.5536540184	0.0800935869	-0.0575822822	0.9951227553	974.2350458856	24.8332990876	-76.9754493408	-21.6317428986	1040.6919498843	61.9601763282	0.0000000000	0.0000000000	0.0106666667	0.0100000000	640	360	0.0000000000	0.0000000000	10.4275919095	36.2503399927	0.9965714596	0.0254026554	-0.0787402755	-0.0207447156	0.9980175278	0.0594194488	
#timeindex 214
-4.6473151428	-2.2515865965	27.6888793704	0.0852888546	-0.0567833381	0.9947368817	973.8688444155	22.2088205470	-82.2318633086	-18.5840354142	1040.8071668331	61.0066012979	0.0000000000	0.0000000000	0.0106666667	0.0100000000	640	360	-0.0000000000	0.0000000000	10.4275919095	36.2503399927	0.9961968622	0.0227180051	-0.0841172039	-0.0178219819	0.9981280202	0.0585049759	
#timeindex 215
-4.6577932068	-2.2581212273	27.8050421609	0.0873327255	-0.0529856765	0.9947690753	973.7037891598	21.5466640836	-84.3356948112	-18.0963960170	1041.0407296352	57.0390217057	0.0000000000	0.0000000000	0.0106666667	0.0100000000	640	360	0.0000000000	0.0000000000	10.4275919095	36.2503399927	0.9960280227	0.0220406673	-0.0862692703	-0.0173543385	0.9983520056	0.0547000901	
#timeindex 216
-4.6758889606	-2.2646610615	27.9336958212	0.0859768249	-0.0497555370	0.9950539544	973.7757990509	23.5356694161	-82.9614526422	-20.5775672517	1041.1650366004	53.8392105466	0.0000000000	0.0000000000	0.0106666667	0.0100000000	640	360	-0.0000000000	0.0000000000	10.4275919095	36.2503399927	0.9961016836	0.0240752748	-0.0848635207	-0.0197337673	0.9984712153	0.0516314898	
#timeindex 217
-4.6942177134	-2.2762740373	28.0555139208	0.0835038289	-0.0474834849	0.9953755217	973.9488041035	24.8126800775	-80.5226369987	-22.2660682236	1041.2466640105	51.5396662615	0.0000000000	0.0000000000	0.0106666667	0.0100000000	640	360	-0.0000000000	0.0000000000	10.4275919095	36.2503399927	0.9962786551	0.0253815636	-0.0823687900	-0.0213530299	0.9985494955	0.0494262402	
#timeindex 218
-4.7025155678	-2.2797813705	28.1678858367	0.0813469880	-0.0483226707	0.9955137302	974.0806413595	26.6787329597	-78.3006162997	-24.2937067443	1041.1521835802	52.5231067647	0.0000000000	0.0000000000	0.0106666667	0.0100000000	640	360	-0.0000000000	0.0000000000	10.4275919095	36.2503399927	0.9964135150	0.0272903997	-0.0800958247	-0.0232975235	0.9984588893	0.0503693539	
#timeindex 219
-4.7218706971	-2.2836284220	28.3218880576	0.0800584671	-0.0527175511	0.9953951485	974.1289163106	29.1516021079	-76.8041384211	-26.6329996970	1040.8448201572	57.2666917535	0.0000000000	0.0000000000	0.0106666667	0.0100000000	640	360	-0.0000000000	0.0000000000	10.4275919095	36.2503399927	0.9964628968	0.0298199647	-0.0785650369	-0.0255408918	0.9981641295	0.0549184244	
#timeindex 220
-4.7345474884	-2.2885540936	28.4568822308	0.0791378300	-0.0557913507	0.9953012253	974.1772309725	30.2409526561	-75.7630821297	-27.5967280531	1040.6352187183	60.5267913345	0.0000000000	0.0000000000	0.0106666667	0.0100000000	640	360	-0.0000000000	0.0000000000	10.4275919095	36.2503399927	0.9965123192	0.0309342909	-0.0775001122	-0.0264651017	0.9979631230	0.0580448409	
#timeindex 221
-4.7498089461	-2.2911528385	28.6038336791	0.0763864694	-0.0563041338	0.9954872936	974.3715302861	30.7021190800	-73.0297064797	-28.2151414077	1040.5898230762	61.0201295563	0.0000000000	0.0000000000	0.0106666667	0.0100000000	640	360	0.0000000000	0.0000000000	10.4275919095	36.2503399927	0.9967110732	0.0314060306	-0.0747040681	-0.0270581565	0.9979195888	0.0585179494	
#timeindex 222
-4.7605120814	-2.2991362941	28.7330662524	0.0753502767	-0.0554349990	0.9956150344	974.4585334217	30.2119355269	-72.0669325681	-27.8233886853	1040.6568848731	60.0486245773	0.0000000000	0.0000000000	0.0106666667	0.0100000000	640	360	0.0000000000	0.0000000000	10.4275919095	36.2503399927	0.9968000711	0.0309046085	-0.0737192205	-0.0266824679	0.9979839007	0.0575862818	
#timeindex 223
-4.7677705636	-2.3106781867	28.8634017557	0.0776932899	-0.0574714333	0.9953194397	974.2687242289	31.0135987106	-74.2593217101	-28.3740245737	1040.5099218522	62.2956464131	0.0000000000	0.0000000000	0.0106666667	0.0100000000	640	360	-0.0000000000	0.0000000000	10.4275919095	36.2503399927	0.9966059101	0.0317246515	-0.0759618748	-0.0272105246	0.9978429640	0.0597411626	
#timeindex 224
-4.7811123762	-2.3282433854	28.9817645757	0.0787731670	-0.0607550795	0.9950395010	974.2093195955	30.4505646283	-75.2648782874	-27.4419103700	1040.3259819050	65.6926421611	0.0000000000	0.0000000000	0.0106666667	0.0100000000	640	360	-0.0000000000	0.0000000000	10.4275919095	36.2503399927	0.9965451435	0.0311487087	-0.0769904860	-0.0263166325	0.9976665667	0.0629988618	
#timeindex 225
-4.7855675245	-2.3496264806	29.1168332941	0.0738718726	-0.0611321270	0.9953922892	974.7372739948	23.0942775323	-70.9206472539	-19.8958248203	1040.5173414371	65.3800323407	0.0000000000	0.0000000000	0.0106666667	0.0100000000	640	360	0.0000000000	0.0000000000	10.4275919095	36.2503399927	0.9970852024	0.0236237630	-0.0725466542	-0.0190799803	0.9978500794	0.0626990708	
#timeindex 226
-4.7945614900	-2.3692864843	29.2236147708	0.0658344630	-0.0563048420	0.9962407281	975.4030327223	14.7144522330	-63.6258267380	-11.8151407845	1040.9866662542	59.6145404636	0.0000000000	0.0000000000	0.0106666667	0.0100000000	640	360	-0.0000000000	0.0000000000	10.4275919095	36.2503399927	0.9977662250	0.0150518124	-0.0650845844	-0.0113306513	0.9983001591	0.0571699976	
#timeindex 227
-4.8037519968	-2.3847638225	29.3488143200	0.0597989746	-0.0508976018	0.9969119905	975.8084589785	10.4857085859	-57.9977454565	-8.0014746306	1041.3475828073	53.6462346355	0.0000000000	0.0000000000	0.0106666667	0.0100000000	640	360	0.0000000000	-0.0000000000	10.4275919095	36.2503399927	0.9981809466	0.0107261158	-0.0593274673	-0.0076733676	0.9986462760	0.0514464270	
#timeindex 228
-4.8152741235	-2.3962098921	29.4619424918	0.0589314575	-0.0500901376	0.9970045443	975.8743353281	8.0055210865	-57.2802798225	-5.4531880575	1041.4152078973	52.6436872336	0.0000000000	0.0000000000	0.0106666667	0.0100000000	640	360	0.0000000000	0.0000000000	10.4275919095	36.2503399927	0.9982483333	0.0081890647	-0.0585935523	-0.0052295756	0.9987111281	0.0504849899	
#timeindex 229
-4.8257498099	-2.4068621209	29.5738578467	0.0594053475	-0.0514907959	0.9969050620	975.8581801251	5.0148278105	-57.8921493944	-2.1529540032	1041.3622003268	53.9153301480	0.0000000000	0.0000000000	0.0106666667	0.0100000000	640	360	0.0000000000	-0.0000000000	10.4275919095	36.2503399927	0.9982318077	0.0051298034	-0.0592194502	-0.0020646704	0.9986602941	0.0517044881	
#timeindex 230
-4.8382694383	-2.4175107153	29.6838263896	0.0589475385	-0.0508127970	0.9969670242	975.8866639231	3.4455398734	-57.5255126755	-0.5461945975	1041.4056647195	53.1100128689	0.0000000000	0.0000000000	0.0106666667	0.0100000000	640	360	-0.0000000000	-0.0000000000	10.4275919095	36.2503399927	0.9982609445	0.0035245362	-0.0588444076	-0.0005237974	0.9987019762	0.0509321935	
#timeindex 231
-4.8520104559	-2.4249944206	29.8039142625	0.0565895982	-0.0512331096	0.9970821360	976.0201502979	2.5863858607	-55.2613246049	0.2691950543	1041.3861038493	53.4943038929	0.0000000000	0.0000000000	0.0106666667	0.0100000000	640	360	0.0000000000	-0.0000000000	10.4275919095	36.2503399927	0.9983974913	0.0026456843	-0.0565283082	0.0002581565	0.9986832175	0.0513007263	
#timeindex 232
-4.8670063399	-2.4318996586	29.9312021578	0.0551002756	-0.0519977424	0.9971259672	976.0977807085	0.0680311792	-53.9347294813	2.9190917462	1041.3485462511	54.1425380785	0.0000000000	0.0000000000	0.0106666667	0.0100000000	640	360	-0.0000000000	0.0000000000	10.4275919095	36.2503399927	0.9984769016	0.0000695909	-0.0551712980	0.0027993920	0.9986471999	0.0519223792	
#timeindex 233
-4.8822170532	-2.4406349004	30.0481759871	0.0544670282	-0.0534805287	0.9970823315	976.1268281699	-1.2823553516	-53.3910860381	4.4095972001	1041.2659920106	55.6095283211	0.0000000000	0.0000000000	0.0106666667	0.0100000000	640	360	-0.0000000000	0.0000000000	10.4275919095	36.2503399927	0.9985066150	-0.0013117561	-0.0546151904	0.0042287781	0.9985680309	0.0533292143	
#timeindex 234
-4.9023433526	-2.4472227424	30.1773110906	0.0544714559	-0.0578403349	0.9968386811	976.1335525896	1.2138337050	-53.2696094699	1.9958780400	1041.0126467554	60.2944116116	0.0000000000	0.0000000000	0.0106666667	0.0100000000	640	360	-0.0000000000	0.0000000000	10.4275919095	36.2503399927	0.9985134936	0.0012416634	-0.0544909287	0.0019140354	0.9983250743	0.0578219901	
#timeindex 235
-4.9188838517	-2.4577286774	30.2945538469	0.0562092125	-0.0614544331	0.9965259039	976.0410891184	2.9407047224	-54.8724136968	0.4711089532	1040.7835346279	64.1571695851	0.0000000000	0.0000000000	0.0106666667	0.0100000000	640	360	0.0000000000	0.0000000000	10.4275919095	36.2503399927	0.9984189102	0.0030081266	-0.0561304807	0.0004517907	0.9981053571	0.0615263525	
#timeindex 236
-4.9405562593	-2.4652290661	30.4092314525	0.0620603748	-0.0613501390	0.9961850583	975.6995831575	6.0498043364	-60.4115921846	-2.4751627841	1040.7749463065	64.2504086773	0.0000000000	0.0000000000	0.0106666667	0.0100000000	640	360	0.0000000000	-0.0000000000	10.4275919095	36.2503399927	0.9980695745	0.0061885090	-0.0617966566	-0.0023736667	0.9980971209	0.0616157683	
#timeindex 237
-4.9619131402	-2.4733595004	30.5432236966	0.0705856310	-0.0604564388	0.9956719780	975.1292479099	10.2929088069	-68.5043288818	-6.5139553140	1040.7939075448	63.6579979990	0.0000000000	0.0000000000	0.0106666667	0.0100000000	640	360	0.0000000000	-0.0000000000	10.4275919095	36.2503399927	0.9974861631	0.0105288957	-0.0700749365	-0.0062468453	0.9981153046	0.0610476499	
#timeindex 238
-4.9839330802	-2.4782828757	30.6617344750	0.0815520602	-0.0664838330	0.9944491749	974.2622470779	16.8613521927	-78.7693207881	-12.2995961692	1040.2966273306	70.5576176191	0.0000000000	0.0000000000	0.0106666667	0.0100000000	640	360	0.0000000000	-0.0000000000	10.4275919095	36.2503399927	0.9965992845	0.0172479346	-0.0805752753	-0.0117952412	0.9976384158	0.0676643450	
#timeindex 239
-5.0062591603	-2.4909986951	30.8171277258	0.0923897000	-0.0778368600	0.9926759625	973.2993762412	21.4524470113	-88.9041838290	-15.3336597044	1039.3437077347	82.9232559531	0.0000000000	0.0000000000	0.0106666667	0.0100000000	640	360	-0.0000000000	-0.0000000000	10.4275919095	36.2503399927	0.9956143377	0.0219442901	-0.0909425016	-0.0147048905	0.9967245715	0.0795229202	
#timeindex 240
-5.0243827868	-2.5096889008	30.9178590763	0.0964734137	-0.0862007716	0.9915958388	972.9441783218	20.8622594474	-92.8451893039	-13.5291762149	1038.6394569850	91.6066050584	0.0000000000	0.0000000000	0.0106666667	0.0100000000	640	360	-0.0000000000	0.0000000000	10.4275919095	36.2503399927	0.9952509962	0.0213405712	-0.0949738630	-0.0129744013	0.9960491991	0.0878502015	
#timeindex 241
-5.0331940580	-2.5212182116	31.0057323829	0.0943102676	-0.0875469701	0.9916859893	973.1991659635	15.7951320659	-91.1577443091	-8.1954419760	1038.6187615826	92.4696335287	0.0000000000	0.0000000000	0.0106666667	0.0100000000	640	360	-0.0000000000	0.0000000000	10.4275919095	36.2503399927	0.9955118299	0.0161572691	-0.0932477298	-0.0078593812	0.9960293523	0.0886778408	
#timeindex 242
-5.0506267214	-2.5284551949	31.1219075842	0.0924903330	-0.0831017521	0.9922397075	973.3953677775	8.9625222708	-89.9831559812	-1.5095600604	1039.1083808550	87.1677943440	0.0000000000	0.0000000000	0.0106666667	0.0100000000	640	360	-0.0000000000	0.0000000000	10.4275919095	36.2503399927	0.9957125301	0.0091680072	-0.0920462115	-0.0014476593	0.9964988944	0.0835934079	
#timeindex 243
-5.0671228463	-2.5394459801	31.2310998874	0.0930970199	-0.0763514638	0.9927252384	973.3392223027	5.0527447707	-90.8904025402	2.0518698871	1039.7013728830	79.7720211643	0.0000000000	0.0000000000	0.0106666667	0.0100000000	640	360	-0.0000000000	0.0000000000	10.4275919095	36.2503399927	0.9956550974	0.0051685897	-0.0929742586	0.0019677313	0.9970675703	0.0765009044	
#timeindex 244
-5.0852557060	-2.5507773514	31.3474110397	0.0971859839	-0.0742016620	0.9924963465	972.9590455240	7.3373031334	-94.7243204903	-0.2704475100	1039.8551192551	77.7688120169	0.0000000000	0.0000000000	0.0106666667	0.0100000000	640	360	-0.0000000000	-0.0000000000	10.4275919095	36.2503399927	0.9952662042	0.0075055264	-0.0968960773	-0.0002593576	0.9972150121	0.0745798385	
#timeindex 245
-5.1014703020	-2.5593054443	31.4681007354	0.0996388366	-0.0760921045	0.9921099203	972.7170780652	10.5326955855	-96.8833604938	-3.2827018498	1039.6753152847	80.0699254505	0.0000000000	0.0000000000	0.0106666667	0.0100000000	640	360	-0.0000000000	0.0000000000	10.4275919095	36.2503399927	0.9950186891	0.0107741801	-0.0991046179	-0.0031480920	0.9970425812	0.0767865929	
#timeindex 246
-5.1198333814	-2.5673236277	31.5775132629	0.0978353298	-0.0751955368	0.9923577377	972.8895488969	11.0115557843	-95.0815884542	-4.0295376045	1039.7405976559	79.1832224549	0.0000000000	0.0000000000	0.0106666667	0.0100000000	640	360	-0.0000000000	0.0000000000	10.4275919095	36.2503399927	0.9951951142	0.0112640192	-0.0972615364	-0.0038643031	0.9971051866	0.0759362498	
#timeindex 247
-5.1346878850	-2.5738032159	31.6917586106	0.0936151963	-0.0712544454	0.9930553857	973.2897198419	9.3119175504	-91.0837341029	-2.9409375098	1040.0612477531	74.9044866099	0.0000000000	0.0000000000	0.0106666667	0.0100000000	640	360	-0.0000000000	0.0000000000	10.4275919095	36.2503399927	0.9956044600	0.0095254131	-0.0931720227	-0.0028203420	0.9974126882	0.0718329671	
#timeindex 248
-5.1508017300	-2.5802335731	31.8089777654	0.0885880266	-0.0683681965	0.9937192517	973.7419946314	7.4879149143	-86.2919242920	-1.6440127673	1040.2886374045	71.7187452103	0.0000000000	0.0000000000	0.0106666667	0.0100000000	640	360	0.0000000000	0.0000000000	10.4275919095	36.2503399927	0.9960671041	0.0076595913	-0.0882703505	-0.0015765987	0.9976307535	0.0687778596	
#timeindex 249
-5.1648713452	-2.5870455147	31.9279399192	0.0865837152	-0.0661308308	0.9940472692	973.9152833610	6.2559902640	-84.4139834285	-0.6788087318	1040.4551511464	69.2773265727	0.0000000000	0.0000000000	0.0106666667	0.0100000000	640	360	0.0000000000	0.0000000000	10.4275919095	36.2503399927	0.9962443659	0.0063994222	-0.0863493538	-0.0006509736	0.9977904392	0.0664365533	
#timeindex 250
-5.1827397026	-2.5928240749	32.0511589533	0.0872051465	-0.0656434730	0.9940252496	973.8603639997	7.6616338277	-84.9301358412	-2.1767982951	1040.4780121177	68.9020910728	0.0000000000	0.0000000000	0.0106666667	0.0100000000	640	360	0.0000000000	0.0000000000	10.4275919095	36.2503399927	0.9961881873	0.0078372931	-0.0868773401	-0.0020875369	0.9978123628	0.0660767046	
#timeindex 251
-5.1964204844	-2.5986066389	32.1682848777	0.0897340713	-0.0661250767	0.9937682178	973.6417470938	7.3399267188	-87.4283190298	-1.6138470318	1040.4474909726	69.3768284954	0.0000000000	0.0000000000	0.0106666667	0.0100000000	640	360	0.0000000000	0.0000000000	10.4275919095	36.2503399927	0.9959645582	0.0075082102	-0.0894327995	-0.0015476699	0.9977830932	0.0665319751	
#timeindex 252
-5.2083954598	-2.6042954870	32.2836426206	0.0905599747	-0.0672435698	0.9936182332	973.5672136366	3.7116319532	-88.4813059162	2.4126439293	1040.3914661587	70.1890774902	0.0000000000	0.0000000000	0.0106666667	0.0100000000	640	360	0.0000000000	0.0000000000	10.4275919095	36.2503399927	0.9958883159	0.0037967290	-0.0905099283	0.0023137115	0.9977293657	0.0673109171	
#timeindex 253
-5.2202319576	-2.6090299888	32.3959630401	0.0876236628	-0.0673237700	0.9938760505	973.8245040925	3.7654080850	-85.6007833342	2.1553264348	1040.3856065730	70.2842408298	0.0000000000	0.0000000000	0.0106666667	0.0100000000	640	360	-0.0000000000	0.0000000000	10.4275919095	36.2503399927	0.9961515053	0.0038517381	-0.0875633636	0.0020669455	0.9977237464	0.0674021782	
#timeindex 254
-5.2331703571	-2.6112581540	32.5250477239	0.0830927394	-0.0697363469	0.9940988072	974.2060592575	5.5433684481	-81.0411151748	0.1502457200	1040.2037437752	72.9580644453	0.0000000000	0.0000000000	0.0106666667	0.0100000000	640	360	-0.0000000000	0.0000000000	10.4275919095	36.2503399927	0.9965418084	0.0056704620	-0.0828991554	0.0001440848	0.9975493410	0.0699663595	
#timeindex 255
-5.2403713894	-2.6166347364	32.6105840235	0.0805610282	-0.0809124343	0.9934601646	974.4079673202	4.7998846615	-78.6251327925	1.6994737960	1039.3275959228	84.5102978782	0.0000000000	0.0000000000	0.0106666667	0.0100000000	640	360	-0.0000000000	-0.0000000000	10.4275919095	36.2503399927	0.9967483456	0.0049099322	-0.0804277814	0.0016297855	0.9967091203	0.0810448842	
#timeindex 256
-5.2458229742	-2.6054251711	32.7995937338	0.0785650331	-0.0928686071	0.9925739053	974.5469134053	1.2228371692	-77.0237328223	6.3352858871	1038.2519549968	96.6409457912	0.0000000000	0.0000000000	0.0106666667	0.0100000000	640	360	0.0000000000	0.0000000000	10.4275919095	36.2503399927	0.9968904774	0.0012508733	-0.0787896660	0.0060755023	0.9956775869	0.0926781050	
#timeindex 257
-5.2510564500	-2.6149326960	32.9085298205	0.0742329417	-0.1004182801	0.9921721823	974.8584968780	-0.4508150674	-72.9831830431	8.2945406768	1037.4882546001	104.3841581233	0.0000000000	0.0000000000	0.0106666667	0.0100000000	640	360	0.0000000000	0.0000000000	10.4275919095	36.2503399927	0.9972092045	-0.0004611510	-0.0746564780	0.0079544163	0.9949452027	0.1001038006	
#timeindex 258
-5.2549401416	-2.6262541910	33.0372361645	0.0740928231	-0.1004428831	0.9921801655	974.8324498785	-4.1288218583	-73.2153308430	12.2138603458	1037.4764288057	104.1163368226	0.0000000000	0.0000000000	0.0106666667	0.0100000000	640	360	-0.0000000000	0.0000000000	10.4275919095	36.2503399927	0.9971825604	-0.0042234839	-0.0748939483	0.0117130210	0.9949338618	0.0998469615	
#timeindex 259
-5.2438846461	-2.6462823180	33.0912460700	0.0759511074	-0.0922422530	0.9928357347	974.6189823973	-9.8656451270	-75.4741371167	17.8739941120	1038.2601575588	95.0951937051	0.0000000000	0.0000000000	0.0106666667	0.0100000000	640	360	0.0000000000	-0.0000000000	10.4275919095	36.2503399927	0.9969641987	-0.0100918361	-0.0772045425	0.0171410564	0.9956854531	0.0911957377	
#timeindex 260
-5.2626447748	-2.6604804605	33.2242530117	0.0772412070	-0.0840977842	0.9934592889	974.4880924807	-12.2500949608	-76.8031897983	19.8708786210	1038.9830596817	86.4064822960	0.0000000000	0.0000000000	0.0106666667	0.0100000000	640	360	-0.0000000000	-0.0000000000	10.4275919095	36.2503399927	0.9968303078	-0.0125309545	-0.0785640665	0.0190560570	0.9963787121	0.0828633140	
#timeindex 261
-5.2749741768	-2.6740834630	33.3186425477	0.0749196277	-0.0843517752	0.9936155330	974.6592976915	-12.5243448618	-74.5535471047	19.9819814818	1038.9569509980	86.6943175436	0.0000000000	0.0000000000	0.0106666667	0.0100000000	640	360	0.0000000000	-0.0000000000	10.4275919095	36.2503399927	0.9970054383	-0.0128114921	-0.0762628460	0.0191626040	0.9963536740	0.0831393464	
#timeindex 262
-5.2786282751	-2.6867033159	33.4476047085	0.0695220566	-0.0866961332	0.9938060496	975.0047820641	-14.6197823024	-69.4821854441	21.9232692280	1038.7159415378	89.0802636223	0.0000000000	0.0000000000	0.0106666667	0.0100000000	640	360	0.0000000000	-0.0000000000	10.4275919095	36.2503399927	0.9973588436	-0.0149549720	-0.0710752126	0.0210242877	0.9961225473	0.0854274548	
#timeindex 263
-5.2969843251	-2.6959882643	33.5585261499	0.0674792039	-0.0846957357	0.9941193034	975.1134523165	-16.2350705954	-67.5722929216	23.3201942738	1038.8680858569	86.9252496835	0.0000000000	0.0000000000	0.0106666667	0.0100000000	640	360	0.0000000000	-0.0000000000	10.4275919095	36.2503399927	0.9974700054	-0.0166072942	-0.0691215317	0.0223639307	0.9962684528	0.0833608089	
#timeindex 264
-5.3128200394	-2.7027276000	33.6748279933	0.0680735409	-0.0812846727	0.9943635125	975.1083022836	-14.8326735493	-67.9678437907	21.6254008643	1039.1881902195	83.4684230779	0.0000000000	0.0000000000	0.0106666667	0.0100000000	640	360	0.0000000000	-0.0000000000	10.4275919095	36.2503399927	0.9974647373	-0.0151727442	-0.0695261514	0.0207386337	0.9965754311	0.0800457323	
#timeindex 265
-5.3353675687	-2.7081672919	33.7937360096	0.0685680957	-0.0787423453	0.9945340916	975.0828709757	-14.5959705572	-68.3826699517	21.2275222734	1039.4048285393	80.8314605383	0.0000000000	0.0000000000	0.0106666667	0.0100000000	640	360	0.0000000000	-0.0000000000	10.4275919095	36.2503399927	0.9974387229	-0.0149306143	-0.0699504883	0.0203570704	0.9967831860	0.0775169006	
#timeindex 266
-5.3508890782	-2.7154323625	33.9108558686	0.0674590918	-0.0770475613	0.9947426523	975.1234644224	-16.3652738851	-67.3961728882	22.9034098268	1039.5129449591	78.9620249628	0.0000000000	0.0000000000	0.0106666667	0.0100000000	640	360	0.0000000000	-0.0000000000	10.4275919095	36.2503399927	0.9974802470	-0.0167404826	-0.0689413737	0.0219642368	0.9968868690	0.0757241227	
#timeindex 267
-5.3707042504	-2.7204666213	34.0273910922	0.0651020290	-0.0797531454	0.9946864640	975.3460795726	-12.9350013949	-64.8733225425	19.2427971445	1039.3460565057	82.0744776989	0.0000000000	0.0000000000	0.0106666667	0.0100000000	640	360	0.0000000000	-0.0000000000	10.4275919095	36.2503399927	0.9977079661	-0.0132315639	-0.0663606817	0.0184537306	0.9967268239	0.0787089468	
#timeindex 268
-5.3981129987	-2.7283497495	34.1566050543	0.0622218062	-0.0829133632	0.9946123974	975.6225517022	-6.6137465469	-61.5851617136	12.4633036679	1039.1447734343	85.8460028842	0.0000000000	0.0000000000	0.0106666667	0.0100000000	640	360	0.0000000000	-0.0000000000	10.4275919095	36.2503399927	0.9979907770	-0.0067653808	-0.0629971327	0.0119522357	0.9965337946	0.0823258175	
#timeindex 269
-5.4196482627	-2.7330699888	34.2751616184	0.0612004136	-0.0799741699	0.9949163993	975.7275809905	-2.4112705613	-60.2138741924	7.6955383752	1039.4159845900	83.0777947070	0.0000000000	0.0000000000	0.0106666667	0.0100000000	640	360	0.0000000000	0.0000000000	10.4275919095	36.2503399927	0.9980982143	-0.0024665541	-0.0615944055	0.0073799765	0.9967938845	0.0796711220	
#timeindex 270
-5.4425438468	-2.7392901870	34.4041732177	0.0639827792	-0.0727883175	0.9952929543	975.5664152817	-1.2364639943	-62.8050770851	6.1889277795	1039.9923444546	75.6594406144	0.0000000000	0.0000000000	0.0106666667	0.0100000000	640	360	-0.0000000000	0.0000000000	10.4275919095	36.2503399927	0.9979333535	-0.0012648126	-0.0642450173	0.0059351457	0.9973466103	0.0725569636	
#timeindex 271
-5.4660687261	-2.7486592116	34.5034450815	0.0683337719	-0.0719798494	0.9950625090	975.2921306325	0.5121252723	-66.9390381650	4.5959095730	1040.0542202946	74.9188011648	0.0000000000	0.0000000000	0.0106666667	0.0100000000	640	360	0.0000000000	0.0000000000	10.4275919095	36.2503399927	0.9976527803	0.0005238668	-0.0684737582	0.0044074506	0.9974059489	0.0718466946	
#timeindex 272
-5.4830431118	-2.7582055238	34.6218592929	0.0721365473	-0.0755444945	0.9945297119	975.0178214615	-1.2185009507	-70.8138423217	6.9988600797	1039.7786231273	78.4739520505	0.0000000000	0.0000000000	0.0106666667	0.0100000000	640	360	0.0000000000	0.0000000000	10.4275919095	36.2503399927	0.9973721820	-0.0012464377	-0.0724374005	0.0067118661	0.9971416528	0.0752560637	
#timeindex 273
-5.5047860544	-2.7712158875	34.7341335044	0.0724363111	-0.0761695467	0.9944602461	974.9917597369	-1.8326985900	-71.1586033983	7.7255087496	1039.7280128336	79.0740548418	0.0000000000	0.0000000000	0.0106666667	0.0100000000	640	360	0.0000000000	0.0000000000	10.4275919095	36.2503399927	0.9973455227	-0.0018747171	-0.0727900660	0.0074087180	0.9970931178	0.0758315587	
#timeindex 274
-5.5240937333	-2.7856759769	34.8576862338	0.0695412972	-0.0777858089	0.9945417919	975.2115377957	1.2226140933	-68.0940448304	4.3528635141	1039.5989104387	81.0054831439	0.0000000000	0.0000000000	0.0106666667	0.0100000000	640	360	0.0000000000	-0.0000000000	10.4275919095	36.2503399927	0.9975703397	0.0012506451	-0.0696552459	0.0041743708	0.9969693094	0.0776837873	
#timeindex 275
-5.5465459867	-2.7934020257	34.9730167095	0.0679763177	-0.0774752748	0.9946742190	975.3151664756	0.6695524912	-66.6011630427	4.7935539286	1039.6246969114	80.6488792118	0.0000000000	0.0000000000	0.0106666667	0.0100000000	640	360	0.0000000000	0.0000000000	10.4275919095	36.2503399927	0.9976763443	0.0006849034	-0.0681281366	0.0045969903	0.9969940384	0.0773418062	
#timeindex 276
-5.5646718011	-2.8051812974	35.0889849108	0.0682300484	-0.0697587799	0.9952277996	975.2724733827	-3.7284666478	-67.1233072408	8.9526545831	1040.2113111624	72.2980526096	0.0000000000	0.0000000000	0.0106666667	0.0100000000	640	360	-0.0000000000	0.0000000000	10.4275919095	36.2503399927	0.9976326723	-0.0038139497	-0.0686622520	0.0085855437	0.9975565981	0.0693334120	
#timeindex 277
-5.5875128195	-2.8168504095	35.1817245489	0.0672220564	-0.0623408888	0.9957885361	975.3364604742	-4.6211147400	-66.1307140801	9.3059206156	1040.7192627379	64.5255477554	0.0000000000	0.0000000000	0.0106666667	0.0100000000	640	360	-0.0000000000	0.0000000000	10.4275919095	36.2503399927	0.9976981265	-0.0047270636	-0.0676469016	0.0089243238	0.9980437207	0.0618796251	
#timeindex 278
-5.6077815390	-2.8303365695	35.3048428566	0.0652132522	-0.0603637046	0.9960439021	975.4885170168	-1.9524116886	-63.9857674285	6.1942461003	1040.8555828620	62.6738960471	0.0000000000	0.0000000000	0.0106666667	0.0100000000	640	360	-0.0000000000	0.0000000000	10.4275919095	36.2503399927	0.9978536692	-0.0019971749	-0.0654527774	0.0059402460	0.9981744509	0.0601039018	
#timeindex 279
-5.6262210038	-2.8390260977	35.4162709919	0.0643197754	-0.0590505941	0.9961807034	975.5529873198	-0.5868880596	-63.0227075776	4.5932532102	1040.9393786802	61.4071839714	0.0000000000	0.0000000000	0.0106666667	0.0100000000	640	360	-0.0000000000	0.0000000000	10.4275919095	36.2503399927	0.9979196177	-0.0006003437	-0.0644676374	0.0044049031	0.9982548106	0.0588891323	
#timeindex 280
-5.6457972395	-2.8447522528	35.5447661993	0.0626466789	-0.0581091627	0.9963426714	975.6632920478	1.0498691745	-61.2851980639	2.6828822285	1040.9965705623	60.5447976788	0.0000000000	0.0000000000	0.0106666667	0.0100000000	640	360	0.0000000000	0.0000000000	10.4275919095	36.2503399927	0.9980324514	0.0010739397	-0.0626902918	0.0025728685	0.9983096573	0.0580621089	
#timeindex 281
-5.6614120505	-2.8516460514	35.6456299637	0.0603593821	-0.0577142891	0.9965068017	975.8043087689	3.2798809670	-58.9154525188	0.1406290817	1041.0151798700	60.2835450932	0.0000000000	0.0000000000	0.0106666667	0.0100000000	640	360	-0.0000000000	-0.0000000000	10.4275919095	36.2503399927	0.9981767012	0.0033550792	-0.0602662148	0.0001348625	0.9983275035	0.0578115692	
#timeindex 282
-5.6779221275	-2.8578711358	35.7702352056	0.0600331891	-0.0577807328	0.9965226556	975.8230534148	4.3797970485	-58.5322387963	-1.0480334236	1041.0065680496	60.4231512656	0.0000000000	0.0000000000	0.0106666667	0.0100000000	640	360	-0.0000000000	0.0000000000	10.4275919095	36.2503399927	0.9981958756	0.0044802132	-0.0598742151	-0.0010050580	0.9983192448	0.0579454507	
#timeindex 283
-5.6926644989	-2.8675761996	35.8653934402	0.0607158527	-0.0586594441	0.9964299548	975.7815702637	5.2622881792	-59.1478878186	-1.8921806455	1040.9484804418	61.3955293468	0.0000000000	0.0000000000	0.0106666667	0.0100000000	640	360	-0.0000000000	-0.0000000000	10.4275919095	36.2503399927	0.9981534414	0.0053829373	-0.0605039791	-0.0018145902	0.9982635392	0.0588779556	
#timeindex 284
-5.7055451955	-2.8742466769	35.9837589205	0.0633902638	-0.0629815666	0.9959994963	975.6203594267	4.6421222740	-61.7996937656	-0.7800639114	1040.6772112080	65.8563882859	0.0000000000	0.0000000000	0.0106666667	0.0100000000	640	360	0.0000000000	-0.0000000000	10.4275919095	36.2503399927	0.9979885344	0.0047485528	-0.0632165834	-0.0007480768	0.9980033935	0.0631558934	
#timeindex 285
-5.7239589900	-2.8806324069	36.1015081279	0.0665780445	-0.0699299652	0.9953276666	975.4175917990	4.1193446263	-64.9568301672	0.4718199451	1040.1971353243	73.0508545773	0.0000000000	0.0000000000	0.0106666667	0.0100000000	640	360	0.0000000000	-0.0000000000	10.4275919095	36.2503399927	0.9977811179	0.0042137894	-0.0664461039	0.0004524726	0.9975430036	0.0700553447	
#timeindex 286
-5.7310075135	-2.8846077651	36.2366837574	0.0684841793	-0.0745021592	0.9948664963	975.2911468104	4.0959483212	-66.8299284529	0.9643223600	1039.8520308338	77.8045908588	0.0000000000	0.0000000000	0.0106666667	0.0100000000	640	360	0.0000000000	-0.0000000000	10.4275919095	36.2503399927	0.9976517739	0.0041898567	-0.0683621469	0.0009247795	0.9972120504	0.0746141502	
#timeindex 287
-5.7332255431	-2.8813437841	36.3579449768	0.0661611130	-0.0764681177	0.9948745318	975.4446802138	4.4671690930	-64.5256338168	0.5225397345	1039.6951011374	79.8783695915	0.0000000000	0.0000000000	0.0106666667	0.0100000000	640	360	0.0000000000	-0.0000000000	10.4275919095	36.2503399927	0.9978088274	0.0045695885	-0.0660050214	0.0005011126	0.9970615557	0.0766028919	
#timeindex 288
-5.7418430569	-2.8837437739	36.4976435145	0.0597900329	-0.0825020953	0.9947957359	975.8377186908	5.2638389212	-58.2140529139	-0.4625740528	1039.1891431090	86.2116069629	0.0000000000	0.0000000000	0.0106666667	0.0100000000	640	360	0.0000000000	0.0000000000	10.4275919095	36.2503399927	0.9982108771	0.0053845236	-0.0595487341	-0.0004436058	0.9965763449	0.0826764297	
#timeindex 289
-5.7536367753	-2.8878506470	36.6286900759	0.0526756702	-0.0883070338	0.9946995233	976.2264747561	2.1168495534	-51.5094759225	2.6058877736	1038.6829922075	92.0737821157	0.0000000000	0.0000000000	0.0106666667	0.0100000000	640	360	0.0000000000	-0.0000000000	10.4275919095	36.2503399927	0.9986085462	0.0021653828	-0.0526904404	0.0024990312	0.9960909491	0.0882982216	
#timeindex 290
-5.7686607279	-2.8931064903	36.7504725417	0.0483827300	-0.0927906223	0.9945094328	976.4295008229	-0.5034464109	-47.5501171505	5.2404129768	1038.2602170417	96.6177524355	0.0000000000	0.0000000000	0.0106666667	0.0100000000	640	360	-0.0000000000	-0.0000000000	10.4275919095	36.2503399927	0.9988162271	-0.0005149890	-0.0486403049	0.0050255256	0.9956855102	0.0926558627	
#timeindex 291
-5.7639446572	-2.9056308358	36.8561021204	0.0490564089	-0.0918411118	0.9945645675	976.3683500905	-4.5530703251	-48.5793337620	9.5892292733	1038.3407930567	95.4105573909	0.0000000000	0.0000000000	0.0106666667	0.0100000000	640	360	0.0000000000	0.0000000000	10.4275919095	36.2503399927	0.9987536744	-0.0046574592	-0.0496931185	0.0091960151	0.9957627821	0.0914981697	
#timeindex 292
-5.7671617081	-2.9182064510	36.9832000305	0.0517525313	-0.0857922865	0.9949680191	976.1679987929	-10.1891499562	-51.6532335136	15.5406158446	1038.8577340621	88.7683949610	0.0000000000	0.0000000000	0.0106666667	0.0100000000	640	360	0.0000000000	-0.0000000000	10.4275919095	36.2503399927	0.9985487296	-0.0104227579	-0.0528374939	0.0149033602	0.9962585255	0.0851283745	
#timeindex 293
-5.7716703580	-2.9390578332	37.0561238001	0.0533148813	-0.0766951280	0.9956281338	976.0686806010	-11.7619292895	-53.1735361409	16.8412361243	1039.6121383265	79.1814682571	0.0000000000	0.0000000000	0.0106666667	0.0100000000	640	360	0.0000000000	-0.0000000000	10.4275919095	36.2503399927	0.9984471343	-0.0120315966	-0.0543926527	0.0161506475	0.9969819948	0.0759345676	
#timeindex 294
-5.7784554689	-2.9622073700	37.1470440440	0.0500734021	-0.0705431343	0.9962511333	976.2717492928	-9.6831511424	-49.7548519563	14.0338277354	1040.1101134473	72.9433608294	0.0000000000	0.0000000000	0.0106666667	0.0100000000	640	360	0.0000000000	-0.0000000000	10.4275919095	36.2503399927	0.9986548588	-0.0099051580	-0.0508955879	0.0134583592	0.9974595501	0.0699522588	
#timeindex 295
-5.7934085356	-2.9714574805	37.2547840998	0.0440339875	-0.0702282551	0.9965585784	976.5510459474	-10.0252709756	-43.8564223060	13.9421117902	1040.1295948968	72.6826915023	0.0000000000	0.0000000000	0.0106666667	0.0100000000	640	360	-0.0000000000	-0.0000000000	10.4275919095	36.2503399927	0.9989405589	-0.0102551217	-0.0448619242	0.0133704041	0.9974782327	0.0697022785	
#timeindex 296
-5.8055143924	-2.9795612376	37.3789185857	0.0391725655	-0.0707497895	0.9967246247	976.7072712413	-13.1442157408	-39.3188640908	16.9418291838	1040.0516363814	73.1594039732	0.0000000000	0.0000000000	0.0106666667	0.0100000000	640	360	0.0000000000	0.0000000000	10.4275919095	36.2503399927	0.9991003660	-0.0134455749	-0.0402203328	0.0162471157	0.9974034709	0.0701594430	
#timeindex 297
-5.8197675075	-2.9842693709	37.4936271696	0.0369089216	-0.0683237741	0.9969802372	976.7541944315	-15.5367022488	-37.2248803931	19.2353380384	1040.1904625747	70.5728959626	0.0000000000	0.0000000000	0.0106666667	0.0100000000	640	360	0.0000000000	0.0000000000	10.4275919095	36.2503399927	0.9991483650	-0.0158929142	-0.0380783401	0.0184465773	0.9975366044	0.0676789968	
#timeindex 298
-5.8324427566	-2.9876275362	37.6197153214	0.0385934611	-0.0657928172	0.9970866813	976.6617187776	-17.0916959111	-38.9306843219	20.9101458676	1040.3401192024	67.8375447896	0.0000000000	0.0000000000	0.0106666667	0.0100000000	640	360	0.0000000000	0.0000000000	10.4275919095	36.2503399927	0.9990537692	-0.0174835594	-0.0398232532	0.0200527083	0.9976801243	0.0650558109	
#timeindex 299
-5.8442979538	-2.9893206662	37.7322887134	0.0401118402	-0.0649564006	0.9970815946	976.5346770778	-20.1860571794	-40.6003046364	24.2820221172	1040.3341930017	66.7973096678	0.0000000000	0.0000000000	0.0106666667	0.0100000000	640	360	0.0000000000	0.0000000000	10.4275919095	36.2503399927	0.9989238147	-0.0206488655	-0.0415311531	0.0232863180	0.9976744411	0.0640582315	
#timeindex 300
-5.8534673024	-2.9900459209	37.8537688046	0.0412396652	-0.0652461627	0.9970166640	976.4280608306	-22.6092868975	-41.8676407868	26.9584412787	1040.2577656817	66.9608369730	0.0000000000	0.0000000000	0.0106666667	0.0100000000	640	360	-0.0000000000	-0.0000000000	10.4275919095	36.2503399927	0.9988147541	-0.0231276530	-0.0428275456	0.0258529884	0.9976011477	0.0642150532	
#timeindex 301
-5.8722843086	-2.9923738085	37.9693963892	0.0411301586	-0.0681493896	0.9968269513	976.3963219280	-23.8526794887	-41.9178885821	28.4092504486	1040.0237420924	69.9303988149	0.0000000000	0.0000000000	0.0106666667	0.0100000000	640	360	-0.0000000000	0.0000000000	10.4275919095	36.2503399927	0.9987822875	-0.0243995530	-0.0428789455	0.0272443060	0.9973767205	0.0670628458	
#timeindex 302
-5.8934624282	-2.9927655196	38.1040064318	0.0400566321	-0.0713658864	0.9966455621	976.4816945540	-22.1786752346	-40.8343451306	26.6863546464	1039.8312892890	73.3856838672	0.0000000000	0.0000000000	0.0106666667	0.0100000000	640	360	-0.0000000000	0.0000000000	10.4275919095	36.2503399927	0.9988696175	-0.0226871686	-0.0417705595	0.0255920589	0.9971921593	0.0703764441	
#timeindex 303
-5.9172224141	-2.9939678637	38.2155696824	0.0417908425	-0.0708941064	0.9966080228	976.5250523215	-17.2079771406	-42.1727979606	21.4820382952	1039.9734809523	73.0781174642	0.0000000000	0.0000000000	0.0106666667	0.0100000000	640	360	-0.0000000000	0.0000000000	10.4275919095	36.2503399927	0.9989139693	-0.0176025067	-0.0431396992	0.0206011498	0.9973285203	0.0700814897	
#timeindex 304
-5.9419503496	-2.9952781739	38.3629816089	0.0446938963	-0.0724644163	0.9963690902	976.4986955183	-11.5422802597	-44.6420272160	15.7176850414	1039.9448992226	74.9285744109	0.0000000000	0.0000000000	0.0106666667	0.0100000000	640	360	0.0000000000	0.0000000000	10.4275919095	36.2503399927	0.9988870082	-0.0118069116	-0.0456655408	0.0150731685	0.9973011106	0.0718560671	
#timeindex 305
-5.9622280477	-2.9947297920	38.4773897956	0.0471397135	-0.0767431098	0.9959359129	976.4155224246	-9.2777194220	-46.9306793817	13.6977282568	1039.6368889980	79.4622022129	0.0000000000	0.0000000000	0.0106666667	0.0100000000	640	360	0.0000000000	-0.0000000000	10.4275919095	36.2503399927	0.9988019282	-0.0094904309	-0.0480066652	0.0131360417	0.9970057306	0.0762037898	
#timeindex 306
-5.9837655091	-3.0043522505	38.5969702561	0.0501106251	-0.0846871152	0.9951467318	976.2397456556	-11.0432036387	-50.0983416116	16.2477781747	1038.9464016392	87.5963157379	0.0000000000	0.0000000000	0.0106666667	0.0100000000	640	360	0.0000000000	-0.0000000000	10.4275919095	36.2503399927	0.9986221214	-0.0112963926	-0.0512469528	0.0155815248	0.9963435572	0.0840043574	
#timeindex 307
-6.0213121138	-3.0027487768	38.7614263236	0.0530635625	-0.0923017855	0.9943161664	976.1186354697	-8.4831023817	-52.8798982540	14.2035145236	1038.2683043646	95.6238392473	0.0000000000	0.0000000000	0.0106666667	0.0100000000	640	360	-0.0000000000	-0.0000000000	10.4275919095	36.2503399927	0.9984982345	-0.0086775956	-0.0540922826	0.0136210878	0.9956932659	0.0917027057	
#timeindex 308
-6.0200936135	-3.0198525955	38.8555082881	0.0526884626	-0.0963662379	0.9939504385	976.1770839981	-5.0521565115	-52.2361327831	10.7257522986	1037.8921409889	100.0579442944	0.0000000000	0.0000000000	0.0106666667	0.0100000000	640	360	0.0000000000	-0.0000000000	10.4275919095	36.2503399927	0.9985580231	-0.0051679880	-0.0534337574	0.0102859341	0.9953325274	0.0959549867	
#timeindex 309
-6.0448235963	-3.0264604553	38.9720190730	0.0499782512	-0.0936122353	0.9943535205	976.3423266823	-2.0619774314	-49.2670940304	7.1064931366	1038.1778271951	97.3808358000	0.0000000000	0.0000000000	0.0106666667	0.0100000000	640	360	0.0000000000	-0.0000000000	10.4275919095	36.2503399927	0.9987270543	-0.0021092527	-0.0503966471	0.0068150856	0.9956064988	0.0933876552	
#timeindex 310
