# Text export 
# created by voodoo camera tracker - www.digilab.uni-hannover.de
# Creation date: Mon Jun 17 13:29:42 2019
# The camera (one line per frame) 
#
# Description of the CAHV camera model:
# -------------
# (Cx, Cy, Cz)    : CameraPosition [mm]
# (Ax, Ay, Az)    : RotationAxis2  [unit vector]
# (Hx, Hy, Hz)    : RotationAxis0 [pel] (including FocalLength, PixelSizeX, and Principal Point offset) 
# (Vx, Vy, Vz)    : RotationAxis1 [pel] (including FocalLength, PixelSizeY, and Principal Point offset) 
# (K3, K5)        : Radialdistortion;	K3 [1/(mm)^2]	K5 [1/(mm)^4]
# (sx, sy)        : PixelSize	[mm/pel]
# (Width, Height) : ImageSize	[pel]
# -------------
# (ppx, ppy)      : Principal Point offset [pel]
# f               : Focal Length [mm]
# fov             : Horizontal Field of View [degree] = (2*atan(0.5*Width*sx/f)*180/PI;
# (H0x, H0y, H0z) : RotationAxis0 [unit vector]
# (V0x, V0y, V0z) : RotationAxis1 [unit vector]
# -------------
# (x, y)          : image coordinates [pel]
# (X, Y, Z)       : 3D coordinates [mm]
# -------------
# Projection of 3D coordinates in the camera image:
#  [ x' ] =  [ Hx Hy Hz ] [ 1 0 0 -Cx] [ X ]
#  [ y' ] =  [ Vx Vy Vz ] [ 0 1 0 -Cy] [ Y ]
#  [ z' ] =  [ Ax Ay Az ] [ 0 0 1 -Cz] [ Z ]
#                                      [ 1 ]
# or 
#  [ x' ] =  [f/sx 0    ppx] [ H0x H0y H0z ] [ 1 0 0 -Cx] [ X ]
#  [ y' ] =  [0    f/sy ppy] [ V0x V0y V0z ] [ 0 1 0 -Cy] [ Y ]
#  [ z' ] =  [0    0    1  ] [ Ax  Ay  Az  ] [ 0 0 1 -Cz] [ Z ]
#                                                         [ 1 ]
# then x = x'/z' and y = y'/z' , if the origin of the image coordinates is in the center of the image
# or x = x'/z' + 0.5*(Width-1) and y = y'/z' + 0.5*(Height-1) , if the origin of the image coordinates is in the upper left corner
# -------------
# Cx Cy Cz Ax Ay Az Hx Hy Hz Vx Vy Vz K3 K5 sx sy Width Height ppx ppy f fov H0x H0y H0z V0x V0y V0z
#
#timeindex 1
-0.1925183593	0.1785632101	-1.2348276858	0.0039344473	-0.0138114695	0.9998968764	1966.2046266979	-2.9666282178	-7.7777040191	3.2786600645	2097.1012966089	28.9541367772	0.0000000000	0.0000000000	0.0106666667	0.0100000000	1280	720	-0.0000000000	0.0000000000	20.9730373096	36.0598561778	0.9999910381	-0.0015087960	-0.0039556586	0.0015632738	0.9999034788	0.0138054095	
#timeindex 2
-0.2314408117	0.1773127527	-1.1077107036	0.0054971077	-0.0148634159	0.9998744225	1966.1901626461	-2.8964204076	-10.8527726055	3.2611903528	2097.0697729836	31.1556056418	0.0000000000	0.0000000000	0.0106666667	0.0100000000	1280	720	0.0000000000	-0.0000000000	20.9730373096	36.0598561778	0.9999836818	-0.0014730890	-0.0055196062	0.0015549442	0.9998884482	0.0148550757	
#timeindex 3
-0.2751561820	0.1726382878	-0.9702029159	0.0046350408	-0.0192080413	0.9998047647	1966.1976557735	3.8689746912	-9.0408559681	-3.9408663426	2096.9127353130	40.3037211856	0.0000000000	0.0000000000	0.0106666667	0.0100000000	1280	720	-0.0000000000	0.0000000000	20.9730373096	36.0598561778	0.9999874928	0.0019677199	-0.0045980845	-0.0018790156	0.9998135722	0.0192169215	
#timeindex 4
-0.3189840585	0.1635502414	-0.8270397509	0.0043488492	-0.0221804122	0.9997445258	1966.1262140901	17.6360745609	-8.1612960135	-18.6139179613	2096.7033725635	46.5985989696	0.0000000000	0.0000000000	0.0106666667	0.0100000000	1280	720	-0.0000000000	0.0000000000	20.9730373096	36.0598561778	0.9999511583	0.0089695224	-0.0041507495	-0.0088751656	0.9997137475	0.0222183360	
#timeindex 5
-0.3627742762	0.1525990517	-0.6833897673	0.0090904244	-0.0231400783	0.9996909027	1965.8387262989	34.8812053046	-17.0684302414	-36.7738227267	2096.4120001662	48.8605301650	0.0000000000	0.0000000000	0.0106666667	0.0100000000	1280	720	0.0000000000	0.0000000000	20.9730373096	36.0598561778	0.9998049450	0.0177402149	-0.0086808245	-0.0175338565	0.9995748204	0.0232968308	
#timeindex 6
-0.4094410989	0.1384487087	-0.5532134221	0.0138501514	-0.0242710134	0.9996094694	1965.3791078750	51.3782504005	-25.9839436047	-54.1093642422	2095.9695452334	51.6408950557	0.0000000000	0.0000000000	0.0106666667	0.0100000000	1280	720	0.0000000000	-0.0000000000	20.9730373096	36.0598561778	0.9995711879	0.0261304389	-0.0132151610	-0.0257994889	0.9993638567	0.0246225162	
#timeindex 7
-0.4596507789	0.1271717618	-0.4295708834	0.0171633627	-0.0263081277	0.9995065289	1965.3450806679	48.9383202457	-32.4604731457	-51.2642094172	2095.9278620075	56.0474618546	0.0000000000	0.0000000000	0.0106666667	0.0100000000	1280	720	-0.0000000000	0.0000000000	20.9730373096	36.0598561778	0.9995538820	0.0248895161	-0.0165090560	-0.0244429115	0.9993439820	0.0267235790	
#timeindex 8
-0.5067502220	0.1118077269	-0.2914287735	0.0215908982	-0.0263212153	0.9994203454	1965.3232641518	42.7321510539	-41.3322907776	-44.3940960413	2096.0815538235	56.1624771950	0.0000000000	0.0000000000	0.0106666667	0.0100000000	1280	720	-0.0000000000	0.0000000000	20.9730373096	36.0598561778	0.9995427864	0.0217331236	-0.0210211693	-0.0211672231	0.9994172627	0.0267784186	
#timeindex 9
-0.5528211322	0.0916910336	-0.1517966473	0.0287368582	-0.0249027407	0.9992767617	1964.5877876897	58.2649751936	-55.0449338005	-60.6422037550	2095.7319904371	53.9711707224	0.0000000000	0.0000000000	0.0106666667	0.0100000000	1280	720	-0.0000000000	0.0000000000	20.9730373096	36.0598561778	0.9991687308	0.0296329549	-0.0279952756	-0.0289143641	0.9992505899	0.0257335978	
#timeindex 10
-0.5995857313	0.0672101282	-0.0268047299	0.0370500095	-0.0240060461	0.9990250280	1962.9999532580	87.5391237961	-70.6966259791	-91.4737377482	2094.6190868426	53.7250055733	0.0000000000	0.0000000000	0.0106666667	0.0100000000	1280	720	-0.0000000000	-0.0000000000	20.9730373096	36.0598561778	0.9983611748	0.0445214797	-0.0359555620	-0.0436149216	0.9987199545	0.0256162256	
#timeindex 11
-0.6435964113	0.0487688550	0.1020152956	0.0430676586	-0.0195288865	0.9988812739	1961.9326098589	100.1104858076	-82.6332415818	-104.9437380268	2094.1830025725	45.4676090436	0.0000000000	0.0000000000	0.0106666667	0.0100000000	1280	720	-0.0000000000	0.0000000000	20.9730373096	36.0598561778	0.9978183352	0.0509151424	-0.0420263994	-0.0500374536	0.9985120284	0.0216790770	
#timeindex 12
-0.6858356918	0.0401201392	0.2293784232	0.0443916515	-0.0150642292	0.9989006208	1961.8752853012	98.6456301253	-85.6990792962	-103.7292699739	2094.4242817365	36.1953934956	0.0000000000	0.0000000000	0.0106666667	0.0100000000	1280	720	0.0000000000	-0.0000000000	20.9730373096	36.0598561778	0.9977891805	0.0501701322	-0.0435856523	-0.0494583920	0.9986270709	0.0172580599	
#timeindex 13
-0.7253460552	0.0307877732	0.3720276288	0.0418473424	-0.0165874099	0.9989863151	1962.1300237413	97.9006985965	-80.5676781233	-102.8960523025	2094.4134244182	39.0864416919	0.0000000000	0.0000000000	0.0106666667	0.0100000000	1280	720	0.0000000000	-0.0000000000	20.9730373096	36.0598561778	0.9979187378	0.0497912679	-0.0409758755	-0.0490611116	0.9986218942	0.0186365194	
#timeindex 14
-0.7621367956	0.0222582697	0.5274748913	0.0388954038	-0.0187559332	0.9990672463	1962.3679324190	97.8914873566	-74.5605936640	-102.8285068729	2094.3334301653	43.3211421038	0.0000000000	0.0000000000	0.0106666667	0.0100000000	1280	720	0.0000000000	-0.0000000000	20.9730373096	36.0598561778	0.9980397357	0.0497865831	-0.0379207354	-0.0490289057	0.9985837527	0.0206556358	
#timeindex 15
-0.7983540503	0.0124834394	0.6799016381	0.0375661411	-0.0188627945	0.9991160994	1962.4720095710	97.7644665775	-71.9419789563	-102.7424274527	2094.3359593266	43.4030293818	0.0000000000	0.0000000000	0.0106666667	0.0100000000	1280	720	0.0000000000	-0.0000000000	20.9730373096	36.0598561778	0.9980926682	0.0497219817	-0.0365889355	-0.0489878628	0.9985849586	0.0206946799	
#timeindex 16
-0.8365951921	0.0049636911	0.8200912295	0.0377120146	-0.0178906860	0.9991284839	1962.4394144029	98.1430258073	-72.3147211442	-103.2146481177	2094.3533340303	41.3979291372	0.0000000000	0.0000000000	0.0106666667	0.0100000000	1280	720	0.0000000000	0.0000000000	20.9730373096	36.0598561778	0.9980760907	0.0499145129	-0.0367785082	-0.0492130189	0.9985932429	0.0197386428	
#timeindex 17
-0.8718850810	-0.0005920427	0.9723900303	0.0395117524	-0.0159598100	0.9990916404	1962.2711717958	98.7002163951	-76.0265955684	-103.8903371575	2094.3921791315	37.5651131394	0.0000000000	0.0000000000	0.0106666667	0.0100000000	1280	720	0.0000000000	-0.0000000000	20.9730373096	36.0598561778	0.9979905242	0.0501978942	-0.0386663286	-0.0495351892	0.9986117643	0.0179111459	
#timeindex 18
-0.9061967042	-0.0035203843	1.1208013642	0.0410080588	-0.0134065338	0.9990688685	1962.2901195372	95.7353745002	-79.2600305751	-100.8892053280	2094.6274873114	32.2489927732	0.0000000000	0.0000000000	0.0106666667	0.0100000000	1280	720	0.0000000000	-0.0000000000	20.9730373096	36.0598561778	0.9980001608	0.0486900067	-0.0403108197	-0.0481042416	0.9987239599	0.0153764056	
#timeindex 19
-0.9383262956	-0.0065014446	1.2729967786	0.0410165695	-0.0120383183	0.9990859422	1962.6468449669	87.8893954516	-79.5156822242	-92.6419460001	2095.0552883623	29.0473481270	0.0000000000	0.0000000000	0.0106666667	0.0100000000	1280	720	0.0000000000	-0.0000000000	20.9730373096	36.0598561778	0.9981815877	0.0446996241	-0.0404408415	-0.0441719264	0.9989279366	0.0138498529	
#timeindex 20
-0.9689014021	-0.0101280316	1.4210364573	0.0422256251	-0.0130065194	0.9990234367	1962.7819911233	82.5313900121	-81.8862173720	-86.8114540916	2095.2777674132	30.9481616467	0.0000000000	0.0000000000	0.0106666667	0.0100000000	1280	720	-0.0000000000	-0.0000000000	20.9730373096	36.0598561778	0.9982503216	0.0419745988	-0.0416464708	-0.0413919323	0.9990340152	0.0147561658	
#timeindex 21
-0.9953625319	-0.0144387179	1.5827121358	0.0442969399	-0.0145818133	0.9989119840	1962.7618379680	78.8617358426	-85.8878434196	-82.6917680150	2095.3929497428	34.2548910064	0.0000000000	0.0000000000	0.0106666667	0.0100000000	1280	720	-0.0000000000	-0.0000000000	20.9730373096	36.0598561778	0.9982400719	0.0401082512	-0.0436816558	-0.0394276550	0.9990889344	0.0163328232	
#timeindex 22
-1.0211179105	-0.0173714555	1.7355272854	0.0455214508	-0.0167248853	0.9988233456	1963.0302316010	68.8710508529	-88.3120364711	-71.8005383980	2095.7232165164	38.3643366559	0.0000000000	0.0000000000	0.0106666667	0.0100000000	1280	720	0.0000000000	-0.0000000000	20.9730373096	36.0598561778	0.9983765741	0.0350270937	-0.0449145749	-0.0342346878	0.9992464065	0.0182922178	
#timeindex 23
-1.0390433903	-0.0215933332	1.9175305456	0.0431564821	-0.0206766175	0.9988543415	1963.4909060826	61.2369006195	-83.5669273345	-63.4014534946	2095.8377286974	46.1238609655	0.0000000000	0.0000000000	0.0106666667	0.0100000000	1280	720	-0.0000000000	-0.0000000000	20.9730373096	36.0598561778	0.9986108683	0.0311444450	-0.0425012622	-0.0302299817	0.9993010062	0.0219919796	
#timeindex 24
-1.0608095383	-0.0271418406	2.0885618546	0.0381661738	-0.0256993549	0.9989408823	1964.0572392433	55.5939611356	-73.6097824477	-57.2195804416	2095.7722402329	56.1032670190	0.0000000000	0.0000000000	0.0106666667	0.0100000000	1280	720	0.0000000000	0.0000000000	20.9730373096	36.0598561778	0.9988988994	0.0282745052	-0.0374371628	-0.0272824482	0.9992697811	0.0267501870	
#timeindex 25
-1.0736605144	-0.0352357769	2.2953961265	0.0333429315	-0.0339884078	0.9988658754	1964.5529411611	49.8051563376	-63.8836081360	-50.7491935562	2095.4186241417	72.9948548903	0.0000000000	0.0000000000	0.0106666667	0.0100000000	1280	720	0.0000000000	0.0000000000	20.9730373096	36.0598561778	0.9991510082	0.0253303798	-0.0324905326	-0.0241973505	0.9991011761	0.0348041411	
#timeindex 26
-1.0977425662	-0.0444885646	2.4578601693	0.0286339798	-0.0417248809	0.9987187439	1965.0600859509	39.7357490756	-54.6795799093	-39.8968943416	2095.0485704686	88.6716701453	0.0000000000	0.0000000000	0.0106666667	0.0100000000	1280	720	0.0000000000	-0.0000000000	20.9730373096	36.0598561778	0.9994089367	0.0202091850	-0.0278094605	-0.0190229454	0.9989247335	0.0422788883	
#timeindex 27
-1.1239180668	-0.0588027634	2.6287957055	0.0266244178	-0.0468983459	0.9985447839	1965.2954961337	32.4843342454	-50.8754215304	-32.0544953615	2094.7094347100	99.2362501852	0.0000000000	0.0000000000	0.0106666667	0.0100000000	1280	720	0.0000000000	0.0000000000	20.9730373096	36.0598561778	0.9995286638	0.0165211915	-0.0258747055	-0.0152836687	0.9987630326	0.0473161082	
#timeindex 28
-1.1506285291	-0.0754368083	2.7830864533	0.0305511291	-0.0494578606	0.9983088443	1965.1411372954	28.2865671371	-58.7376220121	-27.0226058970	2094.5197634912	104.5929204214	0.0000000000	0.0000000000	0.0106666667	0.0100000000	1280	720	0.0000000000	0.0000000000	20.9730373096	36.0598561778	0.9994501586	0.0143862512	-0.0298733381	-0.0128844504	0.9986725969	0.0498701828	
#timeindex 29
-1.1749801147	-0.0878205014	2.9483683668	0.0334649264	-0.0504982173	0.9981633277	1965.0788335240	16.1813053286	-65.0635920048	-13.7237228445	2094.5567743722	106.4261163891	0.0000000000	0.0000000000	0.0106666667	0.0100000000	1280	720	0.0000000000	0.0000000000	20.9730373096	36.0598561778	0.9994184715	0.0082296421	-0.0330906601	-0.0065435076	0.9986902438	0.0507442555	
#timeindex 30
-1.2036230950	-0.0999139601	3.1050118392	0.0316400559	-0.0490939214	0.9982928898	1965.2349428660	6.4135486465	-61.9710685964	-3.5842103918	2094.7635608025	103.1296158092	0.0000000000	0.0000000000	0.0106666667	0.0100000000	1280	720	0.0000000000	0.0000000000	20.9730373096	36.0598561778	0.9994978671	0.0032618635	-0.0315178351	-0.0017089611	0.9987888401	0.0491724753	
#timeindex 31
-1.2279855272	-0.1158167909	3.2901040689	0.0244561072	-0.0453613648	0.9986712399	1965.6210159777	9.3649663847	-47.7100258034	-7.6675527529	2095.1210439597	95.3517680962	0.0000000000	0.0000000000	0.0106666667	0.0100000000	1280	720	0.0000000000	0.0000000000	20.9730373096	36.0598561778	0.9996942198	0.0047629236	-0.0242648184	-0.0036559096	0.9989592890	0.0454639768	
#timeindex 32
-1.2555522664	-0.1289258383	3.4552115571	0.0175032784	-0.0437081533	0.9988910013	1965.8690039544	15.7957904185	-33.7561832424	-15.2563759738	2095.2316818796	91.9477140931	0.0000000000	0.0000000000	0.0106666667	0.0100000000	1280	720	0.0000000000	-0.0000000000	20.9730373096	36.0598561778	0.9998203439	0.0080335732	-0.0171680405	-0.0072742807	0.9990120415	0.0438409148	
#timeindex 33
-1.2762933120	-0.1419949785	3.6485227914	0.0143918383	-0.0446065316	0.9989009622	1965.9748090889	14.3741471498	-27.6832355856	-13.9983960495	2095.1600439049	93.7623336917	0.0000000000	0.0000000000	0.0106666667	0.0100000000	1280	720	0.0000000000	-0.0000000000	20.9730373096	36.0598561778	0.9998741553	0.0073105404	-0.0140794031	-0.0066744725	0.9989778843	0.0447061302	
#timeindex 34
-1.3015576843	-0.1493145488	3.8185548079	0.0131303904	-0.0444825252	0.9989238699	1966.0408837652	7.9716672667	-25.4877126414	-7.2846196232	2095.2104870023	93.3964097784	0.0000000000	0.0000000000	0.0106666667	0.0100000000	1280	720	0.0000000000	-0.0000000000	20.9730373096	36.0598561778	0.9999077602	0.0040543063	-0.0129627832	-0.0034733260	0.9990019357	0.0445316567	
#timeindex 35
-1.3282546768	-0.1524146397	3.9915793548	0.0151363873	-0.0418208978	0.9990104616	1965.9962767485	2.9229375217	-29.6651960746	-1.7913813647	2095.4665298601	87.7482368818	0.0000000000	0.0000000000	0.0106666667	0.0100000000	1280	720	0.0000000000	-0.0000000000	20.9730373096	36.0598561778	0.9998850735	0.0014865753	-0.0150874074	-0.0008541354	0.9991240176	0.0418385928	
#timeindex 36
-1.3607989269	-0.1504256761	4.1578556814	0.0181239993	-0.0387302482	0.9990853259	1965.8969880257	-1.6259973102	-35.7255680849	3.2087148499	2095.7294114538	81.1842226266	0.0000000000	0.0000000000	0.0106666667	0.0100000000	1280	720	-0.0000000000	0.0000000000	20.9730373096	36.0598561778	0.9998345763	-0.0008269652	-0.0181696490	0.0015299238	0.9992493603	0.0387088534	
#timeindex 37
-1.3911578408	-0.1463923051	4.3445094160	0.0184391691	-0.0373200791	0.9991332287	1965.8750142008	-5.7770024581	-36.4963339876	7.6096439351	2095.8336131048	78.1440937394	0.0000000000	0.0000000000	0.0106666667	0.0100000000	1280	720	0.0000000000	0.0000000000	20.9730373096	36.0598561778	0.9998234007	-0.0029381228	-0.0185616524	0.0036282985	0.9992990439	0.0372593118	
#timeindex 38
-1.4255973462	-0.1437012329	4.5213409707	0.0185782962	-0.0378385727	0.9991111496	1965.8737917143	-4.5968218790	-36.7291694725	6.3813496979	2095.7960421053	79.2538210984	0.0000000000	0.0000000000	0.0106666667	0.0100000000	1280	720	-0.0000000000	0.0000000000	20.9730373096	36.0598561778	0.9998227789	-0.0023378954	-0.0186800701	0.0030426445	0.9992811299	0.0377884328	
#timeindex 39
-1.4561370744	-0.1438109251	4.7113856409	0.0189705082	-0.0391348217	0.9990538452	1965.8683606900	1.9163443193	-37.2537739486	-0.4870521170	2095.6960724009	82.1016125955	0.0000000000	0.0000000000	0.0106666667	0.0100000000	1280	720	0.0000000000	-0.0000000000	20.9730373096	36.0598561778	0.9998200167	0.0009746326	-0.0189468785	-0.0002322277	0.9992334641	0.0391462674	
#timeindex 40
-1.4942265561	-0.1419704245	4.8889884748	0.0202920279	-0.0413198694	0.9989398891	1965.8114164165	6.4936302406	-39.6640323657	-5.1710225454	2095.5011220572	86.7827625141	0.0000000000	0.0000000000	0.0106666667	0.0100000000	1280	720	-0.0000000000	0.0000000000	20.9730373096	36.0598561778	0.9997910555	0.0033025922	-0.0201727106	-0.0024655573	0.9991405113	0.0413782521	
#timeindex 41
-1.5319739295	-0.1439241410	5.0615794582	0.0230128311	-0.0433657496	0.9987941837	1965.6613341658	14.5253862298	-44.6593789825	-13.4092627577	2095.2734361742	91.2817573351	0.0000000000	0.0000000000	0.0106666667	0.0100000000	1280	720	0.0000000000	0.0000000000	20.9730373096	36.0598561778	0.9997147252	0.0073874590	-0.0227132915	-0.0063935722	0.9990319500	0.0435233848	
#timeindex 42
-1.5693147950	-0.1465006091	5.2243928423	0.0286401549	-0.0449121867	0.9985803107	1965.3089806103	22.9968753063	-55.3324684929	-21.8443997147	2095.0438219152	94.8532885204	0.0000000000	0.0000000000	0.0106666667	0.0100000000	1280	720	0.0000000000	0.0000000000	20.9730373096	36.0598561778	0.9995355219	0.0116959694	-0.0281415128	-0.0104154679	0.9989224694	0.0452263004	
#timeindex 43
-1.6135192916	-0.1504890555	5.3737320421	0.0374069464	-0.0509019804	0.9980028601	1964.6311625561	32.7918057538	-71.9654097454	-31.0006763227	2094.2928271861	107.9789421659	0.0000000000	0.0000000000	0.0106666667	0.0100000000	1280	720	0.0000000000	0.0000000000	20.9730373096	36.0598561778	0.9991907908	0.0166775683	-0.0366008521	-0.0147812050	0.9985643931	0.0514846470	
#timeindex 44
-1.6557197966	-0.1636565648	5.5083976131	0.0461926134	-0.0592624156	0.9971731086	1963.4991129978	54.8697254494	-87.6953482040	-52.8187482919	2092.7993510526	126.8226949320	0.0000000000	0.0000000000	0.0106666667	0.0100000000	1280	720	-0.0000000000	0.0000000000	20.9730373096	36.0598561778	0.9986150422	0.0279061665	-0.0446009337	-0.0251841197	0.9978522997	0.0604693984	
#timeindex 45
-1.6919234823	-0.1738395835	5.6734391130	0.0529254907	-0.0661687764	0.9964038265	1962.4627470950	69.6170477191	-99.6160656822	-66.9602342017	2091.3894610527	142.4408267334	0.0000000000	0.0000000000	0.0106666667	0.0100000000	1280	720	-0.0000000000	0.0000000000	20.9730373096	36.0598561778	0.9980879574	0.0354064998	-0.0506636855	-0.0319268179	0.9971800604	0.0679161652	
#timeindex 46
-1.7271987893	-0.1870924824	5.8402259965	0.0545411304	-0.0711737489	0.9959716676	1962.0855170124	76.4862973201	-101.9813603715	-73.5144419761	2090.3933471324	153.4086730675	0.0000000000	0.0000000000	0.0106666667	0.0100000000	1280	720	-0.0000000000	-0.0000000000	20.9730373096	36.0598561778	0.9978961022	0.0389001281	-0.0518666496	-0.0350518816	0.9967051106	0.0731456636	
#timeindex 47
-1.7621228668	-0.2015854134	6.0198691218	0.0543793472	-0.0714372423	0.9959616494	1961.8483767302	83.3810213219	-101.1359462077	-80.8740548573	2090.0538152937	154.3287928873	0.0000000000	0.0000000000	0.0106666667	0.0100000000	1280	720	-0.0000000000	0.0000000000	20.9730373096	36.0598561778	0.9977754951	0.0424067124	-0.0514366808	-0.0385609646	0.9965432209	0.0735843791	
#timeindex 48
-1.7976370765	-0.2144428192	6.1952157384	0.0554267659	-0.0675800664	0.9961730815	1961.6634826998	84.9607987736	-103.3826432477	-82.8256584760	2090.5456234014	146.4303474773	0.0000000000	0.0000000000	0.0106666667	0.0100000000	1280	720	0.0000000000	0.0000000000	20.9730373096	36.0598561778	0.9976814599	0.0432101706	-0.0525793274	-0.0394914944	0.9967777163	0.0698183793	
#timeindex 49
-1.8323959530	-0.2237037524	6.3676033961	0.0588858405	-0.0641671560	0.9962002981	1961.3206566334	83.8676674532	-110.5324560020	-81.5535381056	2091.0688206294	139.5103856379	0.0000000000	0.0000000000	0.0106666667	0.0100000000	1280	720	-0.0000000000	0.0000000000	20.9730373096	36.0598561778	0.9975071022	0.0426542155	-0.0562156471	-0.0388849440	0.9970271782	0.0665189231	
#timeindex 50
-1.8655931614	-0.2328181626	6.5342108905	0.0636635134	-0.0641224234	0.9959092689	1960.8573913615	81.5126349706	-120.0995782423	-78.3766535345	2091.1808129662	139.6525959291	0.0000000000	0.0000000000	0.0106666667	0.0100000000	1280	720	-0.0000000000	-0.0000000000	20.9730373096	36.0598561778	0.9972714903	0.0414564707	-0.0610813851	-0.0373701970	0.9970805764	0.0665867294	
#timeindex 51
-1.8953436262	-0.2392167736	6.7081864604	0.0658426158	-0.0627828415	0.9958529333	1960.7147100666	77.9214601402	-124.7236921718	-74.4189939738	2091.5153381659	136.7784465465	0.0000000000	0.0000000000	0.0106666667	0.0100000000	1280	720	0.0000000000	0.0000000000	20.9730373096	36.0598561778	0.9971989241	0.0396300369	-0.0634331609	-0.0354831744	0.9972400789	0.0652163273	
#timeindex 52
-1.9173759511	-0.2390216153	6.8939581216	0.0657920335	-0.0557511484	0.9962746698	1960.8577010061	73.0855641142	-125.4013729348	-70.2101607529	2092.5901546907	121.7370843473	0.0000000000	0.0000000000	0.0106666667	0.0100000000	1280	720	-0.0000000000	0.0000000000	20.9730373096	36.0598561778	0.9972716478	0.0371705509	-0.0637778222	-0.0334763915	0.9977525543	0.0580445658	
#timeindex 53
-1.9427491895	-0.2414951901	7.0790963324	0.0635139673	-0.0483333826	0.9968098415	1961.2122923666	69.9788127038	-121.5698879387	-68.1383309801	2093.5222401810	105.8524331595	0.0000000000	0.0000000000	0.0106666667	0.0100000000	1280	720	-0.0000000000	0.0000000000	20.9730373096	36.0598561778	0.9974519893	0.0355904897	-0.0618291691	-0.0324885375	0.9981969751	0.0504707218	
#timeindex 54
-1.9618170836	-0.2395308303	7.2755631926	0.0625363535	-0.0425869870	0.9971336686	1961.2568309561	71.5122889581	-119.9481686686	-70.6123519282	2094.0120959699	93.8625461708	0.0000000000	0.0000000000	0.0106666667	0.0100000000	1280	720	-0.0000000000	0.0000000000	20.9730373096	36.0598561778	0.9974746411	0.0363703997	-0.0610043797	-0.0336681573	0.9984305397	0.0447539118	
#timeindex 55
-1.9862435935	-0.2376980050	7.4680129941	0.0635130748	-0.0394701310	0.9972001795	1961.1370046006	71.1722403550	-122.0904951256	-70.5643125644	2094.2938835861	87.3884823824	0.0000000000	0.0000000000	0.0106666667	0.0100000000	1280	720	-0.0000000000	0.0000000000	20.9730373096	36.0598561778	0.9974136987	0.0361974545	-0.0620939445	-0.0336452520	0.9985648968	0.0416670609	
#timeindex 56
-2.0102069017	-0.2357149602	7.6429744713	0.0665242825	-0.0397354492	0.9969932868	1960.7003509515	72.9412034030	-127.9204527645	-72.1481743628	2094.2025638991	88.2791152057	0.0000000000	0.0000000000	0.0106666667	0.0100000000	1280	720	-0.0000000000	-0.0000000000	20.9730373096	36.0598561778	0.9971916212	0.0370971305	-0.0650589998	-0.0344004415	0.9985213553	0.0420917170	
#timeindex 57
-2.0333610727	-0.2357536649	7.8296706073	0.0714779065	-0.0409761947	0.9966001507	1959.9889974500	74.5988090100	-137.5066368586	-73.2913979530	2094.0309511955	91.3547278929	0.0000000000	0.0000000000	0.0106666667	0.0100000000	1280	720	0.0000000000	-0.0000000000	20.9730373096	36.0598561778	0.9968298343	0.0379401714	-0.0699344324	-0.0349455336	0.9984395299	0.0435581774	
#timeindex 58
-2.0536288451	-0.2358794070	8.0058503155	0.0750458226	-0.0409759282	0.9963378432	1959.5973537597	71.2668937377	-144.6691695072	-69.4164796739	2094.1630057026	91.3542433782	0.0000000000	0.0000000000	0.0106666667	0.0100000000	1280	720	0.0000000000	-0.0000000000	20.9730373096	36.0598561778	0.9966306484	0.0362455942	-0.0735772213	-0.0330979622	0.9985024938	0.0435579463	
#timeindex 59
-2.0679483021	-0.2418505662	8.2039004545	0.0772326902	-0.0410522575	0.9961675681	1959.4558298138	65.5574243731	-149.2146196892	-63.1259552113	2094.3686349520	91.2034790713	0.0000000000	0.0000000000	0.0106666667	0.0100000000	1280	720	0.0000000000	-0.0000000000	20.9730373096	36.0598561778	0.9965586708	0.0333418180	-0.0758889896	-0.0300986234	0.9986005384	0.0434860615	
#timeindex 60
-2.0825091916	-0.2537648299	8.3912183325	0.0760210062	-0.0447111042	0.9961032696	1959.8792275760	57.4005437040	-146.9983622676	-53.9780375126	2094.3115414321	98.1248122425	0.0000000000	0.0000000000	0.0106666667	0.0100000000	1280	720	0.0000000000	0.0000000000	20.9730373096	36.0598561778	0.9967740065	0.0291933141	-0.0747618243	-0.0257368719	0.9985733161	0.0467861716	
#timeindex 61
-2.0980435821	-0.2710110793	8.5768882161	0.0740157100	-0.0495921721	0.9960232383	1960.3053525359	52.6189217927	-143.0527926998	-48.3363948392	2093.9710285034	107.8511224302	0.0000000000	0.0000000000	0.0106666667	0.0100000000	1280	720	0.0000000000	0.0000000000	20.9730373096	36.0598561778	0.9969907292	0.0267614314	-0.0727551490	-0.0230469217	0.9984109586	0.0514237022	
#timeindex 62
-2.1159493275	-0.2899496906	8.7525421780	0.0782859843	-0.0498414301	0.9956842554	1959.7669589006	48.3842180306	-151.6652954956	-43.3239348054	2094.0611970495	108.2297536334	0.0000000000	0.0000000000	0.0106666667	0.0100000000	1280	720	-0.0000000000	0.0000000000	20.9730373096	36.0598561778	0.9967169078	0.0246077055	-0.0771353776	-0.0206569674	0.9984539512	0.0516042345	
#timeindex 63
-2.1321464558	-0.3084386231	8.9347569140	0.0838682264	-0.0470850537	0.9953638120	1959.0540083396	38.5919094708	-163.2421040743	-32.7751753450	2094.5731109123	101.8440514283	0.0000000000	0.0000000000	0.0106666667	0.0100000000	1280	720	0.0000000000	0.0000000000	20.9730373096	36.0598561778	0.9963543087	0.0196274401	-0.0830232209	-0.0156272908	0.9986980331	0.0485595147	
#timeindex 64
-2.1484260089	-0.3247054362	9.1250629196	0.0834301810	-0.0431060204	0.9955808736	1959.2080993487	32.1329141986	-162.7913599752	-26.6385355834	2095.0739453598	92.9434870412	0.0000000000	0.0000000000	0.0106666667	0.0100000000	1280	720	0.0000000000	-0.0000000000	20.9730373096	36.0598561778	0.9964326777	0.0163424629	-0.0827939772	-0.0127013247	0.9989368323	0.0443157020	
#timeindex 65
-2.1659119166	-0.3435032325	9.3266520819	0.0766316148	-0.0412310276	0.9962066041	1960.2875956856	30.7678162865	-149.5185984852	-26.1187160693	2095.2632536877	88.7279567220	0.0000000000	0.0000000000	0.0106666667	0.0100000000	1280	720	0.0000000000	0.0000000000	20.9730373096	36.0598561778	0.9969816982	0.0156481885	-0.0760435900	-0.0124534733	0.9990270950	0.0423057259	
#timeindex 66
-2.1850086136	-0.3596335943	9.5226400384	0.0678422030	-0.0422495931	0.9968010872	1961.5847130933	26.2125201229	-132.3942776639	-21.9040684773	2095.2444736510	90.2981024496	0.0000000000	0.0000000000	0.0106666667	0.0100000000	1280	720	0.0000000000	-0.0000000000	20.9730373096	36.0598561778	0.9976413985	0.0133314126	-0.0673343402	-0.0104439181	0.9990181406	0.0430543755	
#timeindex 67
-2.2002874373	-0.3750736368	9.7376490263	0.0630870757	-0.0438410201	0.9970446258	1962.2504757720	20.1704573806	-123.2726676622	-15.6868764000	2095.1767503577	93.1195283294	0.0000000000	0.0000000000	0.0106666667	0.0100000000	1280	720	-0.0000000000	0.0000000000	20.9730373096	36.0598561778	0.9979799984	0.0102584829	-0.0626951850	-0.0074795444	0.9989858500	0.0443996389	
#timeindex 68
-2.2269237367	-0.3822921476	9.9191076948	0.0615978521	-0.0439167109	0.9971344077	1962.4656035522	14.8153658415	-120.5785529035	-10.1093307711	2095.2206476856	92.9041378530	0.0000000000	0.0000000000	0.0106666667	0.0100000000	1280	720	0.0000000000	0.0000000000	20.9730373096	36.0598561778	0.9980894102	0.0075349396	-0.0613249866	-0.0048201558	0.9990067804	0.0442969402	
#timeindex 69
-2.2543566370	-0.3880571910	10.1040476776	0.0619184203	-0.0432363111	0.9971442878	1962.4422675516	10.6024635726	-121.3995959800	-5.6782029687	2095.3119662674	91.2056024299	0.0000000000	0.0000000000	0.0106666667	0.0100000000	1280	720	-0.0000000000	0.0000000000	20.9730373096	36.0598561778	0.9980775417	0.0053923017	-0.0617425604	-0.0027073823	0.9990503213	0.0434870739	
#timeindex 70
-2.2879087848	-0.3896453806	10.2779255562	0.0630450407	-0.0433011911	0.9970708750	1962.3102921092	3.9540761390	-123.9056511020	1.5176193306	2095.3323484984	90.9009683916	0.0000000000	0.0000000000	0.0106666667	0.0100000000	1280	720	-0.0000000000	0.0000000000	20.9730373096	36.0598561778	0.9980104204	0.0020110016	-0.0630171138	0.0007236049	0.9990600396	0.0433418236	
#timeindex 71
-2.3223031826	-0.3912174111	10.4621739251	0.0614107478	-0.0445201650	0.9971191879	1962.5028592708	-0.3266213903	-120.8815464957	6.0878366389	2095.2241957802	93.1742858807	0.0000000000	0.0000000000	0.0106666667	0.0100000000	1280	720	0.0000000000	0.0000000000	20.9730373096	36.0598561778	0.9981083580	-0.0001661162	-0.0614790859	0.0029026967	0.9990084721	0.0444257475	
#timeindex 72
-2.3530971534	-0.3932353573	10.6577805781	0.0582738037	-0.0463353668	0.9972247478	1962.8551280297	-4.7515081771	-114.9221351545	10.7341662125	2095.0449705962	96.7175720439	0.0000000000	0.0000000000	0.0106666667	0.0100000000	1280	720	0.0000000000	0.0000000000	20.9730373096	36.0598561778	0.9982875182	-0.0024165672	-0.0584481918	0.0051180790	0.9989230170	0.0461151957	
#timeindex 73
-2.3852529831	-0.3972746889	10.8554963516	0.0562061761	-0.0469688031	0.9973137908	1963.0922899740	-4.0402984862	-110.8253790587	9.8504328583	2094.9846231123	98.1088058345	0.0000000000	0.0000000000	0.0106666667	0.0100000000	1280	720	0.0000000000	0.0000000000	20.9730373096	36.0598561778	0.9984081363	-0.0020548534	-0.0563646247	0.0046967126	0.9988942432	0.0467785397	
#timeindex 74
-2.4254522171	-0.4004040536	11.0310324167	0.0571976600	-0.0456072926	0.9973206117	1963.0013161837	2.3495348691	-112.4732855299	2.9721199889	2095.1198743525	95.6390008457	0.0000000000	0.0000000000	0.0106666667	0.0100000000	1280	720	0.0000000000	0.0000000000	20.9730373096	36.0598561778	0.9983618680	0.0011949488	-0.0572027326	0.0014171147	0.9989587314	0.0456009301	
#timeindex 75
-2.4657958872	-0.4082952433	11.2075797134	0.0619770623	-0.0443815941	0.9970903258	1962.4408736414	7.8126859919	-121.6334946051	-2.5511095817	2095.2205832417	93.4191591012	0.0000000000	0.0000000000	0.0106666667	0.0100000000	1280	720	0.0000000000	0.0000000000	20.9730373096	36.0598561778	0.9980768328	0.0039734501	-0.0618615188	-0.0012163758	0.9990067496	0.0445425037	
#timeindex 76
-2.5085143276	-0.4181833349	11.3729710246	0.0658846282	-0.0453253533	0.9967972854	1961.9488987238	8.0879738823	-129.3098259448	-2.3477939874	2095.1305238266	95.4228268314	0.0000000000	0.0000000000	0.0106666667	0.0100000000	1280	720	0.0000000000	0.0000000000	20.9730373096	36.0598561778	0.9978266195	0.0041134586	-0.0657656204	-0.0011194344	0.9989638091	0.0454978578	
#timeindex 77
-2.5498803530	-0.4340209612	11.5507708218	0.0678625521	-0.0461644251	0.9966260682	1961.6722650445	-2.0534416920	-133.6698752277	8.7651268956	2095.0665552491	96.4481286198	0.0000000000	0.0000000000	0.0106666667	0.0100000000	1280	720	0.0000000000	0.0000000000	20.9730373096	36.0598561778	0.9976859265	-0.0010443589	-0.0679830957	0.0041792358	0.9989333087	0.0459867244	
#timeindex 78
-2.5883310717	-0.4538307555	11.7336787431	0.0687163225	-0.0453330536	0.9966057301	1961.5172753364	-8.8730436013	-135.6509316777	15.9918901864	2095.1261754373	94.1993011254	0.0000000000	0.0000000000	0.0106666667	0.0100000000	1280	720	0.0000000000	0.0000000000	20.9730373096	36.0598561778	0.9976071004	-0.0045127369	-0.0689906402	0.0076249758	0.9989617357	0.0449144774	
#timeindex 79
-2.6265238488	-0.4780355223	11.9298057345	0.0677557826	-0.0436052607	0.9967485817	1961.6999762998	1.9726460756	-133.2637957722	4.1010884085	2095.3077993789	91.3857036022	0.0000000000	0.0000000000	0.0106666667	0.0100000000	1280	720	0.0000000000	0.0000000000	20.9730373096	36.0598561778	0.9977000202	0.0010032671	-0.0677765679	0.0019554099	0.9990483345	0.0435729467	
#timeindex 80
-2.6600122813	-0.4997867085	12.1176193479	0.0641630823	-0.0388836884	0.9971816072	1962.1527351900	13.3234851480	-125.7340691330	-8.9567252965	2095.6694436150	82.2939855482	0.0000000000	0.0000000000	0.0106666667	0.0100000000	1280	720	-0.0000000000	0.0000000000	20.9730373096	36.0598561778	0.9979302886	0.0067761847	-0.0639470280	-0.0042705905	0.9992207674	0.0392379913	
#timeindex 81
-2.6903000995	-0.5203552617	12.3268089900	0.0591980393	-0.0319720399	0.9977341233	1962.6994661969	20.8542739568	-115.7835578100	-18.2455298268	2096.1134835507	68.2517736407	0.0000000000	0.0000000000	0.0106666667	0.0100000000	1280	720	-0.0000000000	0.0000000000	20.9730373096	36.0598561778	0.9982083503	0.0106062649	-0.0588863024	-0.0086995172	0.9994324869	0.0325426273	
#timeindex 82
-2.7177766022	-0.5370172761	12.5027780263	0.0537483280	-0.0268379500	0.9981937896	1963.2297861497	27.1611248554	-104.9809872401	-25.9142311071	2096.3480882279	57.7588564312	0.0000000000	0.0000000000	0.0106666667	0.0100000000	1280	720	-0.0000000000	0.0000000000	20.9730373096	36.0598561778	0.9984780654	0.0138138630	-0.0533922284	-0.0123559744	0.9995443470	0.0275395764	
#timeindex 83
-2.7524136813	-0.5461641867	12.6833404749	0.0521430339	-0.0271713491	0.9982699143	1963.3719932636	29.0643164938	-101.7625136564	-27.9989418192	2096.3001575134	58.5204985713	0.0000000000	0.0000000000	0.0106666667	0.0100000000	1280	720	-0.0000000000	0.0000000000	20.9730373096	36.0598561778	0.9985503905	0.0147818063	-0.0517553465	-0.0133499700	0.9995214935	0.0279027294	
#timeindex 84
-2.7826158086	-0.5520077357	12.8639286000	0.0552286048	-0.0287478402	0.9980597993	1963.0849752649	26.2853482498	-107.8720907724	-24.6754770872	2096.2494095103	61.7452333811	0.0000000000	0.0000000000	0.0106666667	0.0100000000	1280	720	0.0000000000	-0.0000000000	20.9730373096	36.0598561778	0.9984044161	0.0133684523	-0.0548626133	-0.0117653331	0.9994972967	0.0294402916	
#timeindex 85
-2.8149191787	-0.5578695517	13.0360181473	0.0571694997	-0.0295125751	0.9979281819	1962.9200300448	21.7659730927	-111.8084329341	-19.6491980615	2096.2615988933	63.1201862163	0.0000000000	0.0000000000	0.0106666667	0.0100000000	1280	720	0.0000000000	-0.0000000000	20.9730373096	36.0598561778	0.9983205267	0.0110699455	-0.0568645956	-0.0093687899	0.9995031087	0.0300958728	
#timeindex 86
-2.8460361786	-0.5590265830	13.2112448569	0.0579427989	-0.0294547074	0.9978852901	1962.8390521653	21.0778759320	-113.3512507729	-18.8742127047	2096.2731795100	62.9719052329	0.0000000000	0.0000000000	0.0106666667	0.0100000000	1280	720	0.0000000000	-0.0000000000	20.9730373096	36.0598561778	0.9982793422	0.0107199865	-0.0576492565	-0.0089992748	0.9995086303	0.0300251720	
#timeindex 87
-2.8776872882	-0.5606236632	13.4011274818	0.0575603687	-0.0281828890	0.9979441511	1962.8681634042	22.4436460704	-112.5823407826	-20.5062503591	2096.3339563821	60.3852374565	0.0000000000	0.0000000000	0.0106666667	0.0100000000	1280	720	0.0000000000	-0.0000000000	20.9730373096	36.0598561778	0.9982941479	0.0114146028	-0.0572581970	-0.0097774347	0.9995376089	0.0287918419	
#timeindex 88
-2.9032531171	-0.5599062817	13.5975173423	0.0573712568	-0.0286500060	0.9979417398	1962.9002297404	21.3627207887	-112.2330158923	-19.3101591225	2096.3189541547	61.2935567045	0.0000000000	0.0000000000	0.0106666667	0.0100000000	1280	720	-0.0000000000	0.0000000000	20.9730373096	36.0598561778	0.9983104565	0.0108648556	-0.0570805340	-0.0092071353	0.9995304558	0.0292249309	
#timeindex 89
-2.9157903630	-0.5536692876	13.8339445263	0.0587678558	-0.0315434724	0.9977731949	1962.7629996862	19.1419714416	-114.9996504478	-16.5033148777	2096.1606313804	67.2397794147	0.0000000000	0.0000000000	0.0106666667	0.0100000000	1280	720	-0.0000000000	0.0000000000	20.9730373096	36.0598561778	0.9982406627	0.0097354058	-0.0584876153	-0.0078688245	0.9994549671	0.0320601058	
#timeindex 90
-2.9304967493	-0.5516643463	14.0439409042	0.0602942564	-0.0358174880	0.9975378239	1962.5995990193	17.6182442357	-117.9929616971	-14.2385637632	2095.8737399162	76.1148442726	0.0000000000	0.0000000000	0.0106666667	0.0100000000	1280	720	-0.0000000000	0.0000000000	20.9730373096	36.0598561778	0.9981575589	0.0089604541	-0.0600099820	-0.0067889851	0.9993181765	0.0362917603	
#timeindex 91
-2.9583010761	-0.5504540654	14.2425086860	0.0615549404	-0.0381977099	0.9973725103	1962.4363512529	19.6514414719	-120.3632657429	-16.0023535006	2095.6682918177	81.2482322215	0.0000000000	0.0000000000	0.0106666667	0.0100000000	1280	720	-0.0000000000	0.0000000000	20.9730373096	36.0598561778	0.9980745328	0.0099945169	-0.0612154938	-0.0076299647	0.9992202183	0.0387393733	
#timeindex 92
-2.9764372581	-0.5501099572	14.4444356819	0.0614902780	-0.0399630881	0.9973073234	1962.4470065992	19.4855928395	-120.2164114105	-15.6041657565	2095.5252394899	84.9318583255	0.0000000000	0.0000000000	0.0106666667	0.0100000000	1280	720	0.0000000000	0.0000000000	20.9730373096	36.0598561778	0.9980799520	0.0099101680	-0.0611408052	-0.0074401078	0.9991520105	0.0404957361	
#timeindex 93
-3.0276209029	-0.5543309386	14.6195691806	0.0581089427	-0.0476157508	0.9971740525	1962.8895034367	11.8168386755	-113.8204165890	-6.7880536712	2094.8868958891	100.4278628980	0.0000000000	0.0000000000	0.0106666667	0.0100000000	1280	720	0.0000000000	0.0000000000	20.9730373096	36.0598561778	0.9983050012	0.0060099201	-0.0578878693	-0.0032365621	0.9988476466	0.0478842723	
#timeindex 94
-3.0664506985	-0.5630727379	14.7859663090	0.0525980565	-0.0535922241	0.9971766734	1963.4989450210	8.0468057080	-103.1361693593	-2.6632429346	2094.2721155096	112.6949565116	0.0000000000	0.0000000000	0.0106666667	0.0100000000	1280	720	0.0000000000	0.0000000000	20.9730373096	36.0598561778	0.9986149568	0.0040925209	-0.0524539733	-0.0012698413	0.9985545177	0.0537332552	
#timeindex 95
-3.0994865883	-0.5760317188	14.9786464864	0.0492908834	-0.0561823680	0.9972030637	1963.8244471891	10.9809497370	-96.4514747232	-5.9001221038	2093.9583293765	118.2651397531	0.0000000000	0.0000000000	0.0106666667	0.0100000000	1280	720	0.0000000000	0.0000000000	20.9730373096	36.0598561778	0.9987805038	0.0055847958	-0.0490542078	-0.0028131939	0.9984049036	0.0563891333	
#timeindex 96
-3.1237696266	-0.5915234643	15.1754767708	0.0496918231	-0.0549071558	0.9972541938	1963.7919030123	7.6044214361	-97.4343986939	-2.3826084905	2094.1241641057	115.4177125588	0.0000000000	0.0000000000	0.0106666667	0.0100000000	1280	720	0.0000000000	0.0000000000	20.9730373096	36.0598561778	0.9987639522	0.0038675289	-0.0495541126	-0.0011360341	0.9984839741	0.0550314725	
#timeindex 97
-3.1407587090	-0.6080968226	15.3842080356	0.0524972209	-0.0504267089	0.9973470754	1963.4906838278	-3.7131011155	-103.5397267350	9.5193794104	2094.6317216235	105.4052753488	0.0000000000	0.0000000000	0.0106666667	0.0100000000	1280	720	0.0000000000	0.0000000000	20.9730373096	36.0598561778	0.9986107552	-0.0018884443	-0.0526592184	0.0045388654	0.9987259788	0.0502575158	
#timeindex 98
-3.1636491269	-0.6270331759	15.5714880639	0.0522436603	-0.0437925173	0.9976737019	1963.4669511286	-12.1009460460	-103.3490519626	17.7052915005	2095.2519193461	91.0431601834	0.0000000000	0.0000000000	0.0106666667	0.0100000000	1280	720	0.0000000000	0.0000000000	20.9730373096	36.0598561778	0.9985986850	-0.0061544142	-0.0525622432	0.0084419301	0.9990216908	0.0434096210	
#timeindex 99
-3.1888479582	-0.6439894329	15.7739735366	0.0479802687	-0.0380841203	0.9981219833	1963.8527334524	-16.7184182784	-95.0413773704	21.6603605990	2095.7063425065	78.9220795691	0.0000000000	0.0000000000	0.0106666667	0.0100000000	1280	720	-0.0000000000	0.0000000000	20.9730373096	36.0598561778	0.9987948899	-0.0085028121	-0.0483370471	0.0103277176	0.9992383609	0.0376302576	
#timeindex 100
-3.2104928763	-0.6507012884	15.9735834308	0.0458858768	-0.0373626853	0.9982477228	1963.8828276463	-29.1057307043	-91.3620453312	34.6328114593	2095.6093739620	76.8430870023	0.0000000000	0.0000000000	0.0106666667	0.0100000000	1280	720	0.0000000000	0.0000000000	20.9730373096	36.0598561778	0.9988101955	-0.0148028692	-0.0464657774	0.0165130167	0.9991921261	0.0366389884	
#timeindex 101
-3.2347720620	-0.6560395788	16.1688024116	0.0480451550	-0.0363121356	0.9981848986	1963.4646296065	-40.3200584233	-95.9732711948	46.6473257257	2095.4792458667	73.9844377664	0.0000000000	0.0000000000	0.0106666667	0.0100000000	1280	720	0.0000000000	0.0000000000	20.9730373096	36.0598561778	0.9985975043	-0.0205063586	-0.0488109985	0.0222415690	0.9991300807	0.0352759768	
#timeindex 102
-3.2597158836	-0.6578284834	16.3538487560	0.0497499740	-0.0338022993	0.9981895334	1963.1704570012	-45.9474810566	-99.4007713918	52.5058872588	2095.5321475358	68.3453753688	0.0000000000	0.0000000000	0.0106666667	0.0100000000	1280	720	0.0000000000	0.0000000000	20.9730373096	36.0598561778	0.9984478912	-0.0233684067	-0.0505541891	0.0250349468	0.9991553043	0.0325872568	
#timeindex 103
-3.2928794428	-0.6582774852	16.5466634894	0.0505683288	-0.0329581142	0.9981766411	1963.0690616398	-46.7941435573	-100.9955195653	53.3732724323	2095.5699806250	66.4882694932	0.0000000000	0.0000000000	0.0106666667	0.0100000000	1280	720	0.0000000000	0.0000000000	20.9730373096	36.0598561778	0.9983963226	-0.0237990103	-0.0513652613	0.0254485183	0.9991733432	0.0317017838	
#timeindex 104
-3.3279118523	-0.6579041546	16.7383697435	0.0528688744	-0.0332092016	0.9980491125	1962.8437803277	-46.2672762726	-105.5156897616	52.9931795580	2095.5658546921	66.9209343626	0.0000000000	0.0000000000	0.0106666667	0.0100000000	1280	720	-0.0000000000	0.0000000000	20.9730373096	36.0598561778	0.9982817469	-0.0235310511	-0.0536641724	0.0252672890	0.9991713760	0.0319080796	
#timeindex 105
-3.3662239501	-0.6554680182	16.9444785991	0.0521601284	-0.0355325703	0.9980063915	1963.0138247260	-42.0844649680	-104.0939448475	48.7459097966	2095.4985570056	72.0595153514	0.0000000000	0.0000000000	0.0106666667	0.0100000000	1280	720	-0.0000000000	0.0000000000	20.9730373096	36.0598561778	0.9983682297	-0.0214037172	-0.0529410879	0.0232421795	0.9991392883	0.0343581687	
#timeindex 106
-3.4063627443	-0.6558540706	17.1337497198	0.0494337920	-0.0400268975	0.9979750236	1963.4178397405	-35.7819261228	-98.6912760195	42.3037590956	2095.2753588565	81.9420674752	0.0000000000	0.0000000000	0.0106666667	0.0100000000	1280	720	0.0000000000	0.0000000000	20.9730373096	36.0598561778	0.9985737075	-0.0181983121	-0.0501933472	0.0201705449	0.9990328668	0.0390701958	
#timeindex 107
-3.4437701462	-0.6468911420	17.3633792918	0.0521886907	-0.0418981074	0.9977579311	1963.2664610748	-28.6503472015	-103.8936380862	35.1349951495	2095.2392058011	86.1460531705	0.0000000000	0.0000000000	0.0106666667	0.0100000000	1280	720	0.0000000000	0.0000000000	20.9730373096	36.0598561778	0.9984967179	-0.0145712659	-0.0528392140	0.0167524592	0.9990156289	0.0410746674	
#timeindex 108
-3.4858008246	-0.6401077573	17.5366591446	0.0629019539	-0.0390097881	0.9972570284	1962.2247572319	-15.3742318042	-124.3686564754	21.5292327026	2095.6431593468	80.6174962958	0.0000000000	0.0000000000	0.0106666667	0.0100000000	1280	720	-0.0000000000	0.0000000000	20.9730373096	36.0598561778	0.9979669183	-0.0078191729	-0.0632525935	0.0102651954	0.9992082350	0.0384386368	
#timeindex 109
-3.5296835204	-0.6287094919	17.7523663462	0.0742976898	-0.0412921756	0.9963808557	1960.7784327511	-0.0300707811	-146.2117107642	6.4718523615	2095.5149705805	86.3600780849	0.0000000000	0.0000000000	0.0106666667	0.0100000000	1280	720	-0.0000000000	0.0000000000	20.9730373096	36.0598561778	0.9972313328	-0.0000152937	-0.0743617416	0.0030857964	0.9991471143	0.0411767150	
#timeindex 110
-3.5908897362	-0.6376745470	17.8951341649	0.0801298454	-0.0486476281	0.9955966132	1959.8993852200	8.8548318810	-157.3083576213	-1.2407062887	2094.7992367555	102.4575923177	0.0000000000	0.0000000000	0.0106666667	0.0100000000	1280	720	-0.0000000000	0.0000000000	20.9730373096	36.0598561778	0.9967842585	0.0045034746	-0.0800053798	-0.0005915721	0.9988058505	0.0488520527	
#timeindex 111
-3.6379964663	-0.6515984641	18.1039999995	0.0811531152	-0.0527694493	0.9953037512	1959.7296907019	13.7927833165	-159.0573045182	-5.6902854462	2094.3299287651	111.5020628380	0.0000000000	0.0000000000	0.0106666667	0.0100000000	1280	720	-0.0000000000	0.0000000000	20.9730373096	36.0598561778	0.9966979536	0.0070148648	-0.0808948758	-0.0027131432	0.9985820832	0.0531644803	
#timeindex 112
-3.6863472234	-0.6730059631	18.2812300401	0.0783448935	-0.0488955218	0.9957265215	1960.0773017607	27.5298551174	-152.8692441612	-21.2667577818	2094.5893100900	104.5288809716	0.0000000000	0.0000000000	0.0106666667	0.0100000000	1280	720	-0.0000000000	0.0000000000	20.9730373096	36.0598561778	0.9968747450	0.0140013954	-0.0777476932	-0.0101400467	0.9987057569	0.0498396486	
#timeindex 113
-3.7244301723	-0.6996467180	18.4825756927	0.0768742625	-0.0429960187	0.9961132918	1960.1202709945	39.9251640526	-149.5474243269	-35.5627122563	2094.9314170295	93.1696910299	0.0000000000	0.0000000000	0.0106666667	0.0100000000	1280	720	0.0000000000	0.0000000000	20.9730373096	36.0598561778	0.9968965987	0.0203055194	-0.0760582505	-0.0169563958	0.9988688744	0.0444235566	
#timeindex 114
-3.7640930724	-0.7198396146	18.6725018458	0.0769727979	-0.0372142264	0.9963384414	1960.0441007945	42.4951309315	-149.8372930837	-39.2143504673	2095.3607254068	81.2933270766	0.0000000000	0.0000000000	0.0106666667	0.0100000000	1280	720	0.0000000000	0.0000000000	20.9730373096	36.0598561778	0.9968578593	0.0216125776	-0.0762056747	-0.0186975067	0.9990735698	0.0387608747	
#timeindex 115
-3.7949932229	-0.7344209223	18.8900447525	0.0762190281	-0.0329538634	0.9965463876	1960.1617873212	41.5984606453	-148.5438090543	-38.9970168473	2095.6949472355	72.2831978787	0.0000000000	0.0000000000	0.0106666667	0.0100000000	1280	720	0.0000000000	0.0000000000	20.9730373096	36.0598561778	0.9969177134	0.0211565405	-0.0755478223	-0.0185938814	0.9992329276	0.0344648211	
#timeindex 116
-3.8336480564	-0.7466958367	19.0682082298	0.0756953346	-0.0317798103	0.9966244328	1960.2477456314	40.9833789080	-147.5773221436	-38.5653946261	2095.7884931735	69.7584554446	0.0000000000	0.0000000000	0.0106666667	0.0100000000	1280	720	0.0000000000	0.0000000000	20.9730373096	36.0598561778	0.9969614309	0.0208437164	-0.0750562772	-0.0183880828	0.9992775306	0.0332610172	
#timeindex 117
-3.8640043871	-0.7541714470	19.2824369315	0.0752502641	-0.0310386486	0.9966814938	1960.3144968139	40.8175946357	-146.7341990146	-38.5362239571	2095.8410327494	68.1781840043	0.0000000000	0.0000000000	0.0106666667	0.0100000000	1280	720	0.0000000000	0.0000000000	20.9730373096	36.0598561778	0.9969953799	0.0207594003	-0.0746274737	-0.0183741741	0.9993025816	0.0325075396	
#timeindex 118
-3.8997855466	-0.7597275024	19.4741832145	0.0726680400	-0.0272071793	0.9969850176	1960.6644964741	41.5262411316	-141.7752840740	-40.0466503137	2096.0593702203	60.1192331711	0.0000000000	0.0000000000	0.0106666667	0.0100000000	1280	720	-0.0000000000	0.0000000000	20.9730373096	36.0598561778	0.9971733860	0.0211198104	-0.0721054216	-0.0190943494	0.9994066855	0.0286650104	
#timeindex 119
-3.9255113202	-0.7657238104	19.6725092064	0.0697343598	-0.0250780707	0.9972503244	1960.9768244715	45.9600026665	-135.9687451275	-45.2520466746	2096.0708988395	55.8746740198	0.0000000000	0.0000000000	0.0106666667	0.0100000000	1280	720	0.0000000000	0.0000000000	20.9730373096	36.0598561778	0.9973322328	0.0233747750	-0.0691522768	-0.0215762963	0.9994121824	0.0266411933	
#timeindex 120
-3.9685375290	-0.7652927226	19.8632612320	0.0683391191	-0.0257525008	0.9973297216	1961.0570730959	50.7832603087	-133.0644360595	-50.3689737246	2095.9082784213	57.5707809384	0.0000000000	0.0000000000	0.0106666667	0.0100000000	1280	720	0.0000000000	0.0000000000	20.9730373096	36.0598561778	0.9973730464	0.0258278332	-0.0676751757	-0.0240160607	0.9993346445	0.0274499016	
#timeindex 121
-3.9988463106	-0.7645026522	20.0650108519	0.0663999196	-0.0280035255	0.9974000467	1961.2090027992	55.1765921762	-129.0144124744	-54.8482957141	2095.6549308616	62.4901200165	0.0000000000	0.0000000000	0.0106666667	0.0100000000	1280	720	0.0000000000	0.0000000000	20.9730373096	36.0598561778	0.9974503162	0.0280622357	-0.0656153762	-0.0261518134	0.9992138477	0.0297954555	
#timeindex 122
-4.0399365567	-0.7625202388	20.2457680911	0.0659334007	-0.0325652218	0.9972924812	1961.1902817933	58.6893507073	-127.7425783510	-57.9951816430	2095.2563464440	72.2519306269	0.0000000000	0.0000000000	0.0106666667	0.0100000000	1280	720	-0.0000000000	0.0000000000	20.9730373096	36.0598561778	0.9974407949	0.0298487878	-0.0649685347	-0.0276522569	0.9990238016	0.0344499128	
#timeindex 123
-4.0747364183	-0.7586963494	20.4354436053	0.0672089968	-0.0372057194	0.9970449765	1960.9603971076	61.5936830207	-129.8863610953	-60.3511005130	2094.8215947847	82.2384981459	0.0000000000	0.0000000000	0.0106666667	0.0100000000	1280	720	-0.0000000000	0.0000000000	20.9730373096	36.0598561778	0.9973238780	0.0313259008	-0.0660588401	-0.0287755653	0.9988165109	0.0392115348	
#timeindex 124
-4.1063551783	-0.7586898831	20.5961040451	0.0721133180	-0.0395862949	0.9966105531	1960.3944898874	58.4352829680	-139.5302452320	-56.2279832007	2094.7326142784	87.2732975798	0.0000000000	0.0000000000	0.0106666667	0.0100000000	1280	720	-0.0000000000	0.0000000000	20.9730373096	36.0598561778	0.9970360635	0.0297195716	-0.0709636184	-0.0268096520	0.9987740847	0.0416121405	
#timeindex 125
-4.1135816865	-0.7580095679	20.7999081442	0.0753631040	-0.0390139827	0.9963926494	1960.4061058549	35.5291983032	-146.8860231792	-31.6484514851	2095.3642883155	84.4382298351	0.0000000000	0.0000000000	0.0106666667	0.0100000000	1280	720	0.0000000000	0.0000000000	20.9730373096	36.0598561778	0.9970419713	0.0180697774	-0.0747046898	-0.0150900659	0.9990752686	0.0402603727	
#timeindex 126
-4.1322156874	-0.7619690358	20.9797476503	0.0776904958	-0.0371180812	0.9962863218	1960.2343347470	19.0089811556	-152.1510404995	-14.1768887939	2095.7603679131	79.1860846105	0.0000000000	0.0000000000	0.0106666667	0.0100000000	1280	720	0.0000000000	0.0000000000	20.9730373096	36.0598561778	0.9969546103	0.0096677683	-0.0773824224	-0.0067595783	0.9992641204	0.0377561359	
#timeindex 127
-4.1552872485	-0.7855206505	21.1588365396	0.0847791345	-0.0356932326	0.9957602580	1959.1270950384	13.9860803793	-166.2989556580	-8.5237714130	2095.9142221126	75.8541940420	0.0000000000	0.0000000000	0.0106666667	0.0100000000	1280	720	0.0000000000	0.0000000000	20.9730373096	36.0598561778	0.9963914798	0.0071131737	-0.0845779036	-0.0040641569	0.9993374785	0.0361674816	
#timeindex 128
-4.1801511992	-0.8048043927	21.3373268204	0.0888926137	-0.0329987589	0.9954944425	1958.4380561719	6.9513520376	-174.6481790721	-1.2339831194	2096.1484097222	69.5935456171	0.0000000000	0.0000000000	0.0106666667	0.0100000000	1280	720	0.0000000000	0.0000000000	20.9730373096	36.0598561778	0.9960410418	0.0035353847	-0.0888242310	-0.0005883664	0.9994491398	0.0331823877	
#timeindex 129
-4.1987774240	-0.8250080943	21.5462008227	0.0853310555	-0.0309027426	0.9958733009	1959.0439546740	0.0256988882	-167.8591987514	5.5058312284	2096.3020505400	64.5781589347	0.0000000000	0.0000000000	0.0106666667	0.0100000000	1280	720	0.0000000000	0.0000000000	20.9730373096	36.0598561778	0.9963491955	0.0000130702	-0.0853714268	0.0026251950	0.9995223961	0.0307910380	
#timeindex 130
-4.1901747592	-0.8339002846	22.0182557443	0.0756580752	-0.0292385784	0.9967050523	1960.5815835488	-0.1286965233	-148.8279721599	4.7784435286	2096.4070481025	61.1358735166	0.0000000000	0.0000000000	0.0106666667	0.0100000000	1280	720	0.0000000000	0.0000000000	20.9730373096	36.0598561778	0.9971312174	-0.0000654537	-0.0756923447	0.0022783746	0.9995724592	0.0291497472	
#timeindex 131
-4.2478589293	-0.8404708048	22.5244858680	0.0678449204	-0.0274320830	0.9973186791	1961.6865336231	-0.9009938659	-133.4730670317	4.8640237480	2096.5142315244	57.3354879264	0.0000000000	0.0000000000	0.0106666667	0.0100000000	1280	720	0.0000000000	-0.0000000000	20.9730373096	36.0598561778	0.9976931834	-0.0004582360	-0.0678830011	0.0023191795	0.9996235646	0.0273377132	
#timeindex 132
-4.2874281526	-0.8413571988	22.7528427397	0.0633649219	-0.0273715463	0.9976149984	1962.2647244967	-1.5438522625	-124.6783667158	5.2829971893	2096.5172853911	57.1865533500	0.0000000000	0.0000000000	0.0106666667	0.0100000000	1280	720	0.0000000000	-0.0000000000	20.9730373096	36.0598561778	0.9979872452	-0.0007851871	-0.0634101088	0.0025189471	0.9996250207	0.0272667008	
#timeindex 133
-4.3208786018	-0.8475423315	22.9466155409	0.0602880689	-0.0277909190	0.9977940737	1962.6436940708	0.4701090429	-118.5724956830	3.0145777098	2096.4936038220	58.2101480976	0.0000000000	0.0000000000	0.0106666667	0.0100000000	1280	720	0.0000000000	-0.0000000000	20.9730373096	36.0598561778	0.9981799851	0.0002390925	-0.0603047269	0.0014373587	0.9996137292	0.0277547535	
#timeindex 134
-4.3592993802	-0.8524656566	23.1283937604	0.0579051334	-0.0275667145	0.9979414170	1962.9227363620	1.9410361048	-113.8441525193	1.2813535184	2096.5056617038	57.8386416175	0.0000000000	0.0000000000	0.0106666667	0.0100000000	1280	720	-0.0000000000	-0.0000000000	20.9730373096	36.0598561778	0.9983219031	0.0009871906	-0.0578999412	0.0006109528	0.9996194785	0.0275776182	
#timeindex 135
-4.4004378501	-0.8591056929	23.3046340550	0.0559738674	-0.0276830110	0.9980483841	1963.1381916700	5.4649103638	-109.9477274534	-2.5712648587	2096.4918395169	58.2948996305	0.0000000000	0.0000000000	0.0106666667	0.0100000000	1280	720	-0.0000000000	-0.0000000000	20.9730373096	36.0598561778	0.9984314814	0.0027793961	-0.0559182603	-0.0012259859	0.9996128880	0.0277951633	
#timeindex 136
-4.4444625001	-0.8639966806	23.4699154803	0.0547469360	-0.0289840874	0.9980795037	1963.2618997217	9.8603201768	-107.4030483645	-7.1769644009	2096.3962136515	61.2727219608	0.0000000000	0.0000000000	0.0106666667	0.0100000000	1280	720	0.0000000000	-0.0000000000	20.9730373096	36.0598561778	0.9984943981	0.0050148554	-0.0546240632	-0.0034219957	0.9995672933	0.0292149969	
#timeindex 137
-4.4837126228	-0.8673794717	23.6545343197	0.0521325575	-0.0320159738	0.9981268326	1963.5280923387	12.2519376299	-102.1628515250	-9.5553541523	2096.1878252566	67.7365214646	0.0000000000	0.0000000000	0.0106666667	0.0100000000	1280	720	0.0000000000	0.0000000000	20.9730373096	36.0598561778	0.9986297808	0.0062312069	-0.0519589541	-0.0045560183	0.9994679332	0.0322969537	
#timeindex 138
-4.5253500283	-0.8709553408	23.8177425715	0.0507960264	-0.0328780697	0.9981677195	1963.6399233749	16.4472264687	-99.3864562238	-14.0260860858	2096.0964493658	69.7558868650	0.0000000000	0.0000000000	0.0106666667	0.0100000000	1280	720	0.0000000000	0.0000000000	20.9730373096	36.0598561778	0.9986866569	0.0083648868	-0.0505469086	-0.0066876752	0.9994243649	0.0332597925	
#timeindex 139
-4.5724234179	-0.8712781120	24.0197147622	0.0509065766	-0.0311111744	0.9982187212	1963.5125079853	28.2344420073	-99.2540925129	-26.7693196930	2096.0721395036	66.6927987630	0.0000000000	0.0000000000	0.0106666667	0.0100000000	1280	720	-0.0000000000	0.0000000000	20.9730373096	36.0598561778	0.9986218548	0.0143597409	-0.0504795898	-0.0127636829	0.9994127739	0.0317993039	
#timeindex 140
-4.6207951870	-0.8742346432	24.1666381676	0.0535518068	-0.0315653319	0.9980660468	1962.9823623486	43.9019431351	-103.9364811226	-43.2386659305	2095.7355015736	68.6007660272	0.0000000000	0.0000000000	0.0106666667	0.0100000000	1280	720	0.0000000000	0.0000000000	20.9730373096	36.0598561778	0.9983522283	0.0223280675	-0.0528610035	-0.0206163110	0.9992522641	0.0327090278	
#timeindex 141
-4.6700746802	-0.8845297279	24.3281490818	0.0591991937	-0.0355250070	0.9976138679	1962.2841466916	48.0331923464	-114.7330278805	-46.7655330019	2095.3535788464	77.3905964928	0.0000000000	0.0000000000	0.0106666667	0.0100000000	1280	720	0.0000000000	0.0000000000	20.9730373096	36.0598561778	0.9979971231	0.0244291775	-0.0583520139	-0.0222979306	0.9990701623	0.0369000423	
#timeindex 142
-4.7143900196	-0.8984165100	24.4954031646	0.0614170320	-0.0395624967	0.9973278082	1962.1104719041	44.4470010274	-119.0667365596	-42.2588295973	2095.1253994599	85.7128446962	0.0000000000	0.0000000000	0.0106666667	0.0100000000	1280	720	-0.0000000000	0.0000000000	20.9730373096	36.0598561778	0.9979087939	0.0226052783	-0.0605560926	-0.0201491224	0.9989613657	0.0408681124	
#timeindex 143
-4.7624549805	-0.9245028769	24.6980221669	0.0579614744	-0.0398279282	0.9975240366	1962.3304969139	52.5554551247	-111.9235124057	-51.1654913345	2094.8896962724	86.6151997918	0.0000000000	0.0000000000	0.0106666667	0.0100000000	1280	720	0.0000000000	0.0000000000	20.9730373096	36.0598561778	0.9980206964	0.0267291529	-0.0569231238	-0.0243958424	0.9988489818	0.0412983578	
#timeindex 144
-4.8144579319	-0.9465456630	24.8973137554	0.0522349844	-0.0394398812	0.9978557021	1962.5783607756	65.4715368653	-100.1478071992	-65.4734173540	2094.5079757179	86.2120128576	0.0000000000	0.0000000000	0.0106666667	0.0100000000	1280	720	0.0000000000	0.0000000000	20.9730373096	36.0598561778	0.9981467573	0.0332981365	-0.0509341237	-0.0312178996	0.9986669765	0.0411061171	
#timeindex 145
-4.8481759370	-0.9562550514	25.1048385156	0.0464966929	-0.0344312678	0.9983248696	1962.9557477163	70.0888698445	-89.0067999775	-71.3673012129	2094.7264669924	75.5690193522	0.0000000000	0.0000000000	0.0106666667	0.0100000000	1280	720	0.0000000000	0.0000000000	20.9730373096	36.0598561778	0.9983386924	0.0356464636	-0.0452679244	-0.0340281191	0.9987711537	0.0360315095	
#timeindex 146
-4.8871644652	-0.9657786780	25.3043792759	0.0406718703	-0.0287103671	0.9987599881	1963.4773102360	68.5931191695	-77.9856640778	-70.6870035648	2095.1620243057	63.1060957537	0.0000000000	0.0000000000	0.0106666667	0.0100000000	1280	720	0.0000000000	0.0000000000	20.9730373096	36.0598561778	0.9986039536	0.0348857405	-0.0396626903	-0.0337037514	0.9989788286	0.0300891544	
#timeindex 147
-4.9206283435	-0.9717774755	25.5074738926	0.0369678118	-0.0271188354	0.9989484219	1963.7936733188	67.2679582564	-70.8474278704	-69.6276490777	2095.3041763462	59.4587164095	0.0000000000	0.0000000000	0.0106666667	0.0100000000	1280	720	0.0000000000	0.0000000000	20.9730373096	36.0598561778	0.9987648525	0.0342117776	-0.0360322583	-0.0331986484	0.9990466070	0.0283500742	
#timeindex 148
-4.9515423241	-0.9792378137	25.6578390561	0.0364019100	-0.0266465993	0.9989819116	1964.0138232246	61.5644844353	-69.9245597046	-63.6144582689	2095.5303157989	58.2137110453	0.0000000000	0.0000000000	0.0106666667	0.0100000000	1280	720	0.0000000000	0.0000000000	20.9730373096	36.0598561778	0.9988768185	0.0313110507	-0.0355628972	-0.0303315430	0.9991544309	0.0277564523	
#timeindex 149
-4.9815983843	-0.9823372272	25.8523315492	0.0367342716	-0.0238833329	0.9990396287	1964.1403029599	56.2073037367	-70.8769137750	-58.0912500594	2095.8481181641	52.2399477542	0.0000000000	0.0000000000	0.0106666667	0.0100000000	1280	720	0.0000000000	0.0000000000	20.9730373096	36.0598561778	0.9989411447	0.0285864448	-0.0360472545	-0.0276980626	0.9993059599	0.0249081461	
#timeindex 150
-5.0133472433	-0.9862608057	26.0469255404	0.0350725696	-0.0211015570	0.9991619684	1964.2516736746	56.1555211554	-67.7631723074	-58.3237894551	2095.9810104976	46.3128395142	0.0000000000	0.0000000000	0.0106666667	0.0100000000	1280	720	0.0000000000	0.0000000000	20.9730373096	36.0598561778	0.9989977867	0.0285601087	-0.0344636383	-0.0278089380	0.9993693234	0.0220820851	
#timeindex 151
-5.0422047360	-0.9878254186	26.2322521508	0.0320462643	-0.0197512165	0.9992912120	1964.3987235566	57.8074431892	-61.8537146170	-60.3144361135	2095.9877992703	43.3618956400	0.0000000000	0.0000000000	0.0106666667	0.0100000000	1280	720	0.0000000000	0.0000000000	20.9730373096	36.0598561778	0.9990725747	0.0294002589	-0.0314581501	-0.0287580836	0.9993725603	0.0206750672	
#timeindex 152
-5.0714521859	-0.9886229828	26.4127978632	0.0318308517	-0.0183903834	0.9993240669	1964.3953723701	58.2989578633	-61.4978059265	-60.9371556665	2096.0267733921	40.5138022103	0.0000000000	0.0000000000	0.0106666667	0.0100000000	1280	720	0.0000000000	-0.0000000000	20.9730373096	36.0598561778	0.9990708703	0.0296502381	-0.0312771387	-0.0290549980	0.9993911432	0.0193170887	
#timeindex 153
-5.0959287570	-0.9939690479	26.6189884467	0.0339070123	-0.0195511554	0.9992337398	1964.1774044298	61.2626758448	-65.4517844402	-63.9318130016	2095.8843818760	43.1777834232	0.0000000000	0.0000000000	0.0106666667	0.0100000000	1280	720	0.0000000000	-0.0000000000	20.9730373096	36.0598561778	0.9989600141	0.0311575540	-0.0332880907	-0.0304828586	0.9993232506	0.0205872820	
#timeindex 154
-5.1179576112	-0.9987672119	26.7907629185	0.0361900671	-0.0233288740	0.9990725913	1963.9961174969	62.3940062200	-69.6861970255	-64.7578036999	2095.6764144633	51.2809185674	0.0000000000	0.0000000000	0.0106666667	0.0100000000	1280	720	0.0000000000	0.0000000000	20.9730373096	36.0598561778	0.9988678135	0.0317329367	-0.0354416685	-0.0308766931	0.9992240912	0.0244508784	
#timeindex 155
-5.1236924859	-1.0052343607	26.9715503272	0.0358368419	-0.0276742075	0.9989744036	1964.0847721540	60.5819045850	-68.7805804014	-62.5240788769	2095.5043121379	60.2939238990	0.0000000000	0.0000000000	0.0106666667	0.0100000000	1280	720	0.0000000000	-0.0000000000	20.9730373096	36.0598561778	0.9989129023	0.0308113209	-0.0349810814	-0.0298116472	0.9991420323	0.0287483034	
#timeindex 156
-5.1345851616	-1.0134488787	27.1120798248	0.0324021526	-0.0318195603	0.9989682758	1964.4100868597	57.3818547301	-61.8891024545	-59.0435930186	2095.3479441233	68.6570249042	0.0000000000	0.0000000000	0.0106666667	0.0100000000	1280	720	0.0000000000	0.0000000000	20.9730373096	36.0598561778	0.9990783540	0.0291838091	-0.0314761480	-0.0281521423	0.9990674756	0.0327358522	
#timeindex 157
-5.1492090402	-1.0181501486	27.3337027490	0.0264215841	-0.0412849373	0.9987980045	1964.9333319064	50.7829785006	-49.8800347718	-51.9068197147	2094.8153605070	87.9615105480	0.0000000000	0.0000000000	0.0106666667	0.0100000000	1280	720	0.0000000000	0.0000000000	20.9730373096	36.0598561778	0.9993444709	0.0258276899	-0.0253684622	-0.0247493098	0.9988135383	0.0419402823	
#timeindex 158
-5.1611664338	-1.0296964188	27.4879112193	0.0213907649	-0.0511699140	0.9984608531	1965.3858579423	41.0894982739	-40.0001267869	-41.5780826126	2094.0975718501	108.2107319300	0.0000000000	0.0000000000	0.0106666667	0.0100000000	1280	720	0.0000000000	0.0000000000	20.9730373096	36.0598561778	0.9995746209	0.0208976876	-0.0203436447	-0.0198245404	0.9984712948	0.0515951649	
#timeindex 159
-5.1678161539	-1.0574175406	27.6360958368	0.0203732602	-0.0580891383	0.9981034928	1965.6206126378	29.8700700228	-38.3837687211	-29.4226572483	2093.5197882148	122.4424088315	0.0000000000	0.0000000000	0.0106666667	0.0100000000	1280	720	0.0000000000	-0.0000000000	20.9730373096	36.0598561778	0.9996940147	0.0151916041	-0.0195215819	-0.0140288013	0.9981958060	0.0583808664	
#timeindex 160
-5.1731935214	-1.0696704614	27.7968602955	0.0207877127	-0.0592731262	0.9980253341	1965.7595636864	14.5962207286	-40.0776212690	-13.0046636458	2093.5583652289	124.6081457623	0.0000000000	0.0000000000	0.0106666667	0.0100000000	1280	720	0.0000000000	-0.0000000000	20.9730373096	36.0598561778	0.9997646837	0.0074234847	-0.0203830576	-0.0062006582	0.9982141997	0.0594134955	
#timeindex 161
-5.1879679711	-1.0857434356	27.9745516596	0.0191810687	-0.0541812563	0.9983468726	1965.8601936888	3.1658486398	-37.5979239219	-1.1984131608	2094.2203143996	113.6783992180	0.0000000000	0.0000000000	0.0106666667	0.0100000000	1280	720	0.0000000000	0.0000000000	20.9730373096	36.0598561778	0.9998158631	0.0016101174	-0.0191219095	-0.0005714066	0.9985298188	0.0542021633	
#timeindex 162
-5.2210748235	-1.0932900099	28.1708455093	0.0131132018	-0.0467827609	0.9988190112	1966.0505492015	4.4246122448	-25.6044605848	-3.4363087676	2095.0020502097	98.1709798583	0.0000000000	0.0000000000	0.0106666667	0.0100000000	1280	720	0.0000000000	0.0000000000	20.9730373096	36.0598561778	0.9999126759	0.0022503114	-0.0130221599	-0.0016384412	0.9989025525	0.0468081844	
#timeindex 163
-5.2546453825	-1.1026295248	28.3624151002	0.0036047318	-0.0430735937	0.9990653990	1966.1790991719	11.2241722482	-6.6102608021	-11.6575514000	2095.3230233606	90.3795837407	0.0000000000	0.0000000000	0.0106666667	0.0100000000	1280	720	0.0000000000	0.0000000000	20.9730373096	36.0598561778	0.9999780551	0.0057084962	-0.0033619093	-0.0055583515	0.9990555933	0.0430932260	
#timeindex 164
-5.2797169144	-1.1129032335	28.5295040803	-0.0025699303	-0.0442074778	0.9990190661	1966.1974922922	8.2427677197	5.4227018139	-9.0393664847	2095.2348996481	92.6927453325	0.0000000000	0.0000000000	0.0106666667	0.0100000000	1280	720	0.0000000000	0.0000000000	20.9730373096	36.0598561778	0.9999874096	0.0041921852	0.0027579292	-0.0043099940	0.9990135757	0.0441961476	
#timeindex 165
-5.2986009379	-1.1173560612	28.7042097083	-0.0026697954	-0.0445849874	0.9990020276	1966.2129240599	2.7810019680	5.3787450917	-3.2192404125	2095.2160617911	93.4998972770	0.0000000000	0.0000000000	0.0106666667	0.0100000000	1280	720	0.0000000000	0.0000000000	20.9730373096	36.0598561778	0.9999952581	0.0014143884	0.0027355733	-0.0015349424	0.9990045938	0.0445809998	
#timeindex 166
-5.3210404435	-1.1206085188	28.8421754435	0.0001632259	-0.0406828903	0.9991720952	1966.2208517419	2.3320800145	-0.2262496286	-2.4756744377	2095.5659146288	85.3247230814	0.0000000000	0.0000000000	0.0106666667	0.0100000000	1280	720	0.0000000000	0.0000000000	20.9730373096	36.0598561778	0.9999992900	0.0011860714	-0.0001150682	-0.0011804082	0.9991714046	0.0406830550	
#timeindex 167
-5.3452442826	-1.1194934538	29.0201053610	0.0040106425	-0.0360021859	0.9993436633	1966.2059605078	-1.0799167892	-7.9298331783	1.4556792832	2095.9437558307	75.5022733363	0.0000000000	0.0000000000	0.0106666667	0.0100000000	1280	720	0.0000000000	0.0000000000	20.9730373096	36.0598561778	0.9999917165	-0.0005492343	-0.0040330299	0.0006940718	0.9993515602	0.0359996848	
#timeindex 168
-5.3718516245	-1.1204364573	29.1724882170	0.0068027168	-0.0328412513	0.9994374294	1966.1591752631	-7.8700940410	-13.6413620839	8.8679103545	2096.1555949001	68.8187621343	0.0000000000	0.0000000000	0.0106666667	0.0100000000	1280	720	0.0000000000	0.0000000000	20.9730373096	36.0598561778	0.9999679220	-0.0040026472	-0.0069378536	0.0042282433	0.9994525657	0.0328129689	
#timeindex 169
-5.4032474311	-1.1191214857	29.3912888903	0.0085517730	-0.0323429839	0.9994402426	1966.1231573781	-9.7915222644	-17.1401203029	11.0297642916	2096.1804627785	67.7403251555	0.0000000000	0.0000000000	0.0106666667	0.0100000000	1280	720	0.0000000000	0.0000000000	20.9730373096	36.0598561778	0.9999496037	-0.0049798655	-0.0087172853	0.0052590210	0.9994644227	0.0322987673	
#timeindex 170
-5.4405337784	-1.1203915158	29.5556948589	0.0108143713	-0.0331479629	0.9993919461	1966.0937886233	-6.5721604748	-21.4929908224	7.7659873176	2096.1394462010	69.4409922754	0.0000000000	0.0000000000	0.0106666667	0.0100000000	1280	720	0.0000000000	0.0000000000	20.9730373096	36.0598561778	0.9999346670	-0.0033425318	-0.0109311096	0.0037028434	0.9994448659	0.0331096499	
#timeindex 171
-5.4809451836	-1.1228876265	29.7463893518	0.0144039395	-0.0319368955	0.9993860922	1966.0182669712	0.8508095445	-28.3086147555	0.0573888495	2096.2336731211	66.9874933610	0.0000000000	0.0000000000	0.0106666667	0.0100000000	1280	720	-0.0000000000	0.0000000000	20.9730373096	36.0598561778	0.9998962575	0.0004327128	-0.0143974644	0.0000273632	0.9994897936	0.0319398151	
#timeindex 172
-5.5237691527	-1.1260510343	29.9116421598	0.0187343669	-0.0288127597	0.9994092497	1965.8506397009	11.2720164315	-36.5257668504	-10.8938126288	2096.3985066200	60.6429400258	0.0000000000	0.0000000000	0.0106666667	0.0100000000	1280	720	-0.0000000000	0.0000000000	20.9730373096	36.0598561778	0.9998110040	0.0057328293	-0.0185766217	-0.0051941989	0.9995683866	0.0289147152	
#timeindex 173
-5.5662288513	-1.1311960942	30.1193119780	0.0206980551	-0.0272684761	0.9994138386	1965.7454330185	15.8919436715	-40.2773671462	-15.7699477394	2096.4553088411	57.5272688996	0.0000000000	0.0000000000	0.0106666667	0.0100000000	1280	720	-0.0000000000	0.0000000000	20.9730373096	36.0598561778	0.9997574970	0.0080824758	-0.0204846462	-0.0075191530	0.9995954701	0.0274291549	
#timeindex 174
-5.6043977965	-1.1375220723	30.3110543071	0.0220544115	-0.0275652194	0.9993766865	1965.7406603646	4.8225482199	-43.2472753915	-3.8692497346	2096.5004597110	57.9119264478	0.0000000000	0.0000000000	0.0106666667	0.0100000000	1280	720	-0.0000000000	0.0000000000	20.9730373096	36.0598561778	0.9997550697	0.0024526974	-0.0219951104	-0.0018448686	0.9996169981	0.0276125606	
#timeindex 175
-5.6426737305	-1.1495979128	30.5132575343	0.0242134047	-0.0270616344	0.9993404720	1965.6420403259	5.1207315627	-47.4876302040	-4.0877455016	2096.5285136788	56.8719751332	0.0000000000	0.0000000000	0.0106666667	0.0100000000	1280	720	-0.0000000000	0.0000000000	20.9730373096	36.0598561778	0.9997049126	0.0026043503	-0.0241517103	-0.0019490479	0.9996303743	0.0271167091	
#timeindex 176
-5.6901036656	-1.1639580482	30.6900179288	0.0284516523	-0.0241876549	0.9993024872	1965.1499997281	34.3096806288	-55.1203410245	-35.1493518948	2096.3707169537	51.7424395182	0.0000000000	0.0000000000	0.0106666667	0.0100000000	1280	720	-0.0000000000	-0.0000000000	20.9730373096	36.0598561778	0.9994546659	0.0174495435	-0.0280336270	-0.0167593045	0.9995551364	0.0246709329	
#timeindex 177
-5.7373856143	-1.1760861305	30.8927968176	0.0343040349	-0.0170666527	0.9992657117	1964.1026020892	62.6722327501	-66.3557632731	-65.5933253272	2095.9324319245	38.0486053141	0.0000000000	0.0000000000	0.0106666667	0.0100000000	1280	720	0.0000000000	0.0000000000	20.9730373096	36.0598561778	0.9989219705	0.0318744398	-0.0337478448	-0.0312750721	0.9993461610	0.0181416763	
#timeindex 178
-5.7778145981	-1.2080514891	31.0343685306	0.0358206824	-0.0075192623	0.9993299452	1963.6457286744	72.4401987073	-69.8412305232	-76.6576056223	2095.8205216039	18.5173597248	0.0000000000	0.0000000000	0.0106666667	0.0100000000	1280	720	0.0000000000	0.0000000000	20.9730373096	36.0598561778	0.9986896094	0.0368423248	-0.0355205169	-0.0365505504	0.9992928018	0.0088291264	
#timeindex 179
-5.8079310278	-1.2178070527	31.2249627452	0.0326725203	-0.0057511081	0.9994495641	1963.8888239698	71.4248528447	-63.7895374932	-75.7532560188	2095.8847936170	14.5367112728	0.0000000000	0.0000000000	0.0106666667	0.0100000000	1280	720	0.0000000000	0.0000000000	20.9730373096	36.0598561778	0.9988132451	0.0363259306	-0.0324426893	-0.0361193541	0.9993234469	0.0069311426	
#timeindex 180
-5.8330904138	-1.2275772729	31.3887982403	0.0328086094	-0.0084492841	0.9994259376	1964.0675968492	66.2057036226	-63.9156273970	-70.0028331991	2096.0395545075	20.0182209748	0.0000000000	0.0000000000	0.0106666667	0.0100000000	1280	720	0.0000000000	0.0000000000	20.9730373096	36.0598561778	0.9989041672	0.0336715260	-0.0325068173	-0.0333775372	0.9993972373	0.0095447410	
#timeindex 181
-5.8551502194	-1.2376190747	31.5642280079	0.0389306129	-0.0092288920	0.9991992969	1963.8275890747	60.3463104342	-75.9569010487	-63.5701257824	2096.2263412912	21.8381563306	0.0000000000	0.0000000000	0.0106666667	0.0100000000	1280	720	0.0000000000	0.0000000000	20.9730373096	36.0598561778	0.9987821017	0.0306915002	-0.0386308827	-0.0303104051	0.9994862977	0.0104124911	
#timeindex 182
-5.8795101952	-1.2464566587	31.7245195417	0.0449611080	-0.0081501795	0.9989554912	1963.4337889548	56.8338227768	-87.9067721507	-59.7952036037	2096.3577076387	19.7948260101	0.0000000000	0.0000000000	0.0106666667	0.0100000000	1280	720	0.0000000000	0.0000000000	20.9730373096	36.0598561778	0.9985818191	0.0289050858	-0.0447084617	-0.0285105122	0.9995489336	0.0094382257	
#timeindex 183
-5.9068335460	-1.2485212309	31.9063934825	0.0467062837	-0.0071287341	0.9988832285	1963.2960718016	56.0748917439	-91.4005939538	-59.0514115992	2096.3973342019	17.7225231314	0.0000000000	0.0000000000	0.0106666667	0.0100000000	1280	720	0.0000000000	0.0000000000	20.9730373096	36.0598561778	0.9985117776	0.0285191014	-0.0464853828	-0.0281558702	0.9995678276	0.0084501462	
#timeindex 184
-5.9311354351	-1.2516920958	32.0670532495	0.0464414238	-0.0069843635	0.9988965977	1963.2762870265	57.6005691428	-90.8753148258	-60.6957933972	2096.3524078908	17.4797734962	0.0000000000	0.0000000000	0.0106666667	0.0100000000	1280	720	0.0000000000	0.0000000000	20.9730373096	36.0598561778	0.9985017153	0.0292950450	-0.0462182314	-0.0289399158	0.9995464066	0.0083344025	
#timeindex 185
-5.9564899469	-1.2547265800	32.2351902846	0.0462163322	-0.0084093603	0.9988960573	1963.1518362777	62.5305414588	-90.3035254867	-65.8155908670	2096.1686686771	20.6920357209	0.0000000000	0.0000000000	0.0106666667	0.0100000000	1280	720	0.0000000000	0.0000000000	20.9730373096	36.0598561778	0.9984384209	0.0318023771	-0.0459274253	-0.0313810489	0.9994587993	0.0098660177	
#timeindex 186
-5.9800449548	-1.2572746730	32.3945408817	0.0450661692	-0.0123801941	0.9989072886	1963.1732585832	65.4147298114	-87.7587461073	-68.5405654209	2095.9818957454	29.0692876830	0.0000000000	0.0000000000	0.0106666667	0.0100000000	1280	720	0.0000000000	0.0000000000	20.9730373096	36.0598561778	0.9984493161	0.0332692451	-0.0446331773	-0.0326803240	0.9993697455	0.0138603137	
#timeindex 187
-6.0018821443	-1.2602801351	32.5506853063	0.0463092913	-0.0175498294	0.9987729737	1963.2018739284	61.4656099924	-89.9461427916	-63.7990939874	2095.9555368154	39.7869725711	0.0000000000	0.0000000000	0.0106666667	0.0100000000	1280	720	0.0000000000	0.0000000000	20.9730373096	36.0598561778	0.9984638696	0.0312607642	-0.0457456643	-0.0304195778	0.9993571774	0.0189705344	
#timeindex 188
-6.0224313093	-1.2637844937	32.7014125240	0.0478699831	-0.0227546965	0.9985943563	1963.3361273746	52.0077673029	-92.9320757151	-53.1413565191	2096.0267021719	50.3090438870	0.0000000000	0.0000000000	0.0106666667	0.0100000000	1280	720	0.0000000000	0.0000000000	20.9730373096	36.0598561778	0.9985321495	0.0264506046	-0.0472642784	-0.0253379402	0.9993911093	0.0239874860	
#timeindex 189
-6.0435624690	-1.2674704051	32.8583140560	0.0482110923	-0.0263778246	0.9984888086	1963.4228485946	47.4257649748	-93.5491424014	-47.8789042105	2095.9635704151	57.6824228988	0.0000000000	0.0000000000	0.0106666667	0.0100000000	1280	720	0.0000000000	0.0000000000	20.9730373096	36.0598561778	0.9985762550	0.0241202463	-0.0475781120	-0.0228287889	0.9993610079	0.0275031327	
#timeindex 190
-6.0533357945	-1.2725080414	32.9971047266	0.0463586270	-0.0365983292	0.9982541961	1963.6520043306	45.6898519112	-89.5163165664	-45.1562013483	2095.3319536097	78.9168014350	0.0000000000	0.0000000000	0.0106666667	0.0100000000	1280	720	0.0000000000	0.0000000000	20.9730373096	36.0598561778	0.9986928012	0.0232373792	-0.0455270591	-0.0215305970	0.9990598513	0.0376277409	
#timeindex 191
-6.0699394420	-1.2834351406	33.1638701828	0.0458116964	-0.0440426769	0.9979787228	1963.8918524045	36.3003760609	-88.5494345999	-34.4821853830	2094.9108078100	94.0352386020	0.0000000000	0.0000000000	0.0106666667	0.0100000000	1280	720	0.0000000000	0.0000000000	20.9730373096	36.0598561778	0.9988147854	0.0184619903	-0.0450353131	-0.0164411978	0.9988590479	0.0448362520	
#timeindex 192
-6.0860560611	-1.2912705317	33.3395523632	0.0481264325	-0.0465276588	0.9977569962	1963.7307579380	33.3425475092	-93.1649744521	-30.8618793618	2094.7304535876	99.1706161216	0.0000000000	0.0000000000	0.0106666667	0.0100000000	1280	720	0.0000000000	-0.0000000000	20.9730373096	36.0598561778	0.9987328544	0.0169576697	-0.0473827283	-0.0147150262	0.9987730545	0.0472848137	
#timeindex 193
-6.1129532652	-1.3082959635	33.5186022039	0.0531809104	-0.0448440219	0.9975774679	1963.1504247316	38.4192770936	-102.9285996924	-35.9578376358	2094.7930308927	96.0839816149	0.0000000000	0.0000000000	0.0106666667	0.0100000000	1280	720	0.0000000000	0.0000000000	20.9730373096	36.0598561778	0.9984377030	0.0195396411	-0.0523484056	-0.0171447927	0.9988028915	0.0458130981	
#timeindex 194
-6.1356774965	-1.3258745347	33.7135789759	0.0559834300	-0.0385808988	0.9976860076	1962.8941764553	35.2572122468	-108.7810122830	-33.0440086367	2095.4047877234	82.8843107347	0.0000000000	0.0000000000	0.0106666667	0.0100000000	1280	720	-0.0000000000	0.0000000000	20.9730373096	36.0598561778	0.9983073779	0.0179314481	-0.0553248812	-0.0157554713	0.9990945788	0.0395194599	
#timeindex 195
-6.1475064213	-1.3358202863	33.9157652384	0.0546379194	-0.0323964202	0.9979805458	1963.1357781965	27.7280954768	-106.5785939908	-25.8339572705	2095.9941844969	69.4544821734	0.0000000000	0.0000000000	0.0106666667	0.0100000000	1280	720	0.0000000000	-0.0000000000	20.9730373096	36.0598561778	0.9984302540	0.0141022184	-0.0542047544	-0.0123176996	0.9993756048	0.0331160819	
#timeindex 196
-6.1635951813	-1.3446542705	34.0867135898	0.0488943573	-0.0292834015	0.9983745911	1963.7703747841	22.6701655405	-95.5086714682	-21.1589317114	2096.2648321272	62.5219408077	0.0000000000	0.0000000000	0.0106666667	0.0100000000	1280	720	0.0000000000	-0.0000000000	20.9730373096	36.0598561778	0.9987530031	0.0115298083	-0.0485747080	-0.0100886349	0.9995046503	0.0298106278	
#timeindex 197
-6.1828015407	-1.3519722970	34.2739576848	0.0447133779	-0.0265679742	0.9986465123	1964.2131603375	15.2804132370	-87.5391189068	-13.7962606264	2096.5000445352	56.3929635999	0.0000000000	0.0000000000	0.0106666667	0.0100000000	1280	720	0.0000000000	-0.0000000000	20.9730373096	36.0598561778	0.9989781992	0.0077714578	-0.0445214772	-0.0065780938	0.9996168002	0.0268883151	
#timeindex 198
-6.2010985684	-1.3559417856	34.4449074013	0.0454161205	-0.0223723729	0.9987176042	1964.1726832312	11.0308748167	-89.0725426824	-9.6255623813	2096.7457768128	47.4071287216	0.0000000000	0.0000000000	0.0106666667	0.0100000000	1280	720	0.0000000000	-0.0000000000	20.9730373096	36.0598561778	0.9989576130	0.0056101872	-0.0453013604	-0.0045894938	0.9997339660	0.0226038451	
#timeindex 199
-6.2245423977	-1.3581273654	34.6307625944	0.0483048310	-0.0184251419	0.9986626845	1963.9045482137	11.1436087124	-94.7875155352	-10.0077149550	2096.9140087268	39.1717440698	0.0000000000	0.0000000000	0.0106666667	0.0100000000	1280	720	0.0000000000	0.0000000000	20.9730373096	36.0598561778	0.9988212423	0.0056675224	-0.0482079356	-0.0047717051	0.9998141794	0.0186771918	
#timeindex 200
-6.2502548100	-1.3624788320	34.8036416896	0.0501792495	-0.0165124273	0.9986037165	1963.7282254539	9.8188432715	-98.5138288938	-8.7236596757	2096.9916311419	35.1131965145	0.0000000000	0.0000000000	0.0106666667	0.0100000000	1280	720	-0.0000000000	0.0000000000	20.9730373096	36.0598561778	0.9987315664	0.0049937606	-0.0501030995	-0.0041594641	0.9998511900	0.0167420655	
#timeindex 201
-6.2758323296	-1.3651139069	34.9996005941	0.0505087655	-0.0174273446	0.9985715559	1963.7068941247	6.4706879809	-99.2133649007	-5.0479141003	2096.9738594157	36.8522913464	0.0000000000	0.0000000000	0.0106666667	0.0100000000	1280	720	-0.0000000000	0.0000000000	20.9730373096	36.0598561778	0.9987207175	0.0032909240	-0.0504588762	-0.0024068589	0.9998427164	0.0175712706	
#timeindex 202
-6.3036958416	-1.3716543572	35.1720605618	0.0480982004	-0.0210606343	0.9986205550	1963.9374805302	7.9732376498	-94.4241900196	-6.3718460448	2096.8213017007	44.5282853822	0.0000000000	0.0000000000	0.0106666667	0.0100000000	1280	720	-0.0000000000	0.0000000000	20.9730373096	36.0598561778	0.9988379914	0.0040551050	-0.0480231521	-0.0030381132	0.9997699764	0.0212312050	
#timeindex 203
-6.3293171920	-1.3802845975	35.3422667442	0.0468335809	-0.0226413912	0.9986460750	1964.0286050692	14.0084127426	-91.7895988295	-12.7052823339	2096.7128461237	48.1326976953	0.0000000000	0.0000000000	0.0106666667	0.0100000000	1280	720	-0.0000000000	0.0000000000	20.9730373096	36.0598561778	0.9988843363	0.0071245317	-0.0466832266	-0.0060579124	0.9997182645	0.0229497983	
#timeindex 204
-6.3608157958	-1.3840637432	35.5046584572	0.0495257622	-0.0209221530	0.9985536853	1963.7146337000	21.3507525512	-96.9479776425	-20.5776130419	2096.7209672745	44.9520535657	0.0000000000	0.0000000000	0.0106666667	0.0100000000	1280	720	0.0000000000	0.0000000000	20.9730373096	36.0598561778	0.9987246538	0.0108587687	-0.0493067240	-0.0098114607	0.9997221367	0.0214332588	
#timeindex 205
-6.4011027657	-1.3792493683	35.7304826278	0.0554048534	-0.0188187484	0.9982866106	1963.0129606719	29.3389690457	-108.3940438411	-29.0654503779	2096.6987852934	41.1380994973	0.0000000000	0.0000000000	0.0106666667	0.0100000000	1280	720	0.0000000000	0.0000000000	20.9730373096	36.0598561778	0.9983677903	0.0149214917	-0.0551280731	-0.0138584841	0.9997115603	0.0196147553	
#timeindex 206
-6.4340021404	-1.3859085977	35.9010819809	0.0618804984	-0.0217798384	0.9978459012	1962.2200249158	33.0160180476	-120.9646393896	-32.3309951815	2096.5104653967	47.7652082542	0.0000000000	0.0000000000	0.0106666667	0.0100000000	1280	720	0.0000000000	0.0000000000	20.9730373096	36.0598561778	0.9979645115	0.0167916003	-0.0615213461	-0.0154155045	0.9996217689	0.0227745784	
#timeindex 207
-6.4683582582	-1.4030947674	36.0354666743	0.0688047845	-0.0290095110	0.9972082781	1961.3486963704	32.9564004207	-134.3692469590	-30.8975031124	2096.1262968940	63.1096795889	0.0000000000	0.0000000000	0.0106666667	0.0100000000	1280	720	-0.0000000000	0.0000000000	20.9730373096	36.0598561778	0.9975213629	0.0167612794	-0.0683387888	-0.0147320117	0.9994385963	0.0300908632	
#timeindex 208
-6.5086022540	-1.4131516362	36.1976595104	0.0725648091	-0.0349726115	0.9967503524	1960.6134613282	45.9211685466	-141.1241621729	-43.5588911357	2095.4483267339	76.6933691924	0.0000000000	0.0000000000	0.0106666667	0.0100000000	1280	720	0.0000000000	-0.0000000000	20.9730373096	36.0598561778	0.9971474301	0.0233550244	-0.0717742678	-0.0207689952	0.9991153383	0.0365676025	
#timeindex 209
-6.5407619892	-1.4234373885	36.3866459090	0.0719392160	-0.0378835983	0.9966893108	1960.3865288121	59.3872942878	-139.2398453746	-57.5101600508	2094.8406437804	83.7746891595	0.0000000000	0.0000000000	0.0106666667	0.0100000000	1280	720	0.0000000000	-0.0000000000	20.9730373096	36.0598561778	0.9970320146	0.0302037546	-0.0708159241	-0.0274209974	0.9988255935	0.0399439947	
#timeindex 210
-6.5677106909	-1.4313822219	36.5519197137	0.0737431549	-0.0311517807	0.9967906067	1960.0686756960	60.6621333628	-143.1112145916	-59.7432272549	2095.2869514158	69.9019163613	0.0000000000	0.0000000000	0.0106666667	0.0100000000	1280	720	0.0000000000	-0.0000000000	20.9730373096	36.0598561778	0.9968703578	0.0308521244	-0.0727848618	-0.0284857297	0.9990383941	0.0333294197	
#timeindex 211
-6.6005378117	-1.4358084243	36.7531374400	0.0777178311	-0.0190016091	0.9967943005	1959.5219682321	57.4034337424	-151.6852973135	-57.9596275848	2096.0309141673	44.4750302105	0.0000000000	0.0000000000	0.0106666667	0.0100000000	1280	720	0.0000000000	-0.0000000000	20.9730373096	36.0598561778	0.9965923081	0.0291947840	-0.0771455503	-0.0276353047	0.9993931176	0.0212058128	
#timeindex 212
-6.6247352338	-1.4432139842	36.9249853195	0.0821645521	-0.0131469712	0.9965320585	1958.9579235468	51.4269948339	-160.8385699585	-52.4097162354	2096.4049077795	31.9784954148	0.0000000000	0.0000000000	0.0106666667	0.0100000000	1280	720	0.0000000000	0.0000000000	20.9730373096	36.0598561778	0.9963054409	0.0261552299	-0.0818008087	-0.0249890922	0.9995714387	0.0152474317	
#timeindex 213
-6.6462156747	-1.4469215401	37.1111844774	0.0878792279	-0.0144884081	0.9960257664	1958.2010907195	42.9388451847	-172.1472378231	-42.9589938589	2096.5833690678	34.2876257854	0.0000000000	0.0000000000	0.0106666667	0.0100000000	1280	720	0.0000000000	0.0000000000	20.9730373096	36.0598561778	0.9959205237	0.0218382460	-0.0875522785	-0.0204829626	0.9996565295	0.0163484312	
#timeindex 214
-6.6666965014	-1.4513429059	37.2866185085	0.0930372455	-0.0136357680	0.9955692526	1957.3926795378	36.9987039102	-182.4141486058	-36.6372426543	2096.7373621354	32.1416639772	0.0000000000	0.0000000000	0.0106666667	0.0100000000	1280	720	0.0000000000	0.0000000000	20.9730373096	36.0598561778	0.9955093743	0.0188171525	-0.0927739216	-0.0174687348	0.9997299538	0.0153252309	
#timeindex 215
-6.6847799650	-1.4512774561	37.4801949011	0.0951620410	-0.0098738658	0.9954128253	1957.0147157501	35.3719903379	-186.7408692491	-35.5902704667	2096.8620688823	24.2019961550	0.0000000000	0.0000000000	0.0106666667	0.0100000000	1280	720	-0.0000000000	0.0000000000	20.9730373096	36.0598561778	0.9953171458	0.0179898231	-0.0949744463	-0.0169695357	0.9997894143	0.0115395762	
#timeindex 216
-6.7064224684	-1.4531294309	37.6576683206	0.0937810766	-0.0066036696	0.9955709423	1957.1818223525	39.7052003195	-184.0998069836	-40.8678500195	2096.8303245917	17.7580571677	0.0000000000	0.0000000000	0.0106666667	0.0100000000	1280	720	-0.0000000000	-0.0000000000	20.9730373096	36.0598561778	0.9954021345	0.0201936482	-0.0936312297	-0.0194858996	0.9997742786	0.0084670889	
#timeindex 217
-6.7263520601	-1.4501503843	37.8616441882	0.0912794436	-0.0044631785	0.9958153158	1957.5595173590	43.1605340335	-179.2423831301	-44.9919254086	2096.7774869492	13.5217143174	0.0000000000	0.0000000000	0.0106666667	0.0100000000	1280	720	0.0000000000	-0.0000000000	20.9730373096	36.0598561778	0.9955942262	0.0219509946	-0.0911607949	-0.0214522698	0.9997490855	0.0064471894	
#timeindex 218
-6.7432941268	-1.4497689820	38.0314265314	0.0892125937	-0.0052713790	0.9959986575	1957.8450085736	46.9756066995	-175.1175102307	-48.9221658069	2096.6759332017	15.4787826595	0.0000000000	0.0000000000	0.0106666667	0.0100000000	1280	720	0.0000000000	-0.0000000000	20.9730373096	36.0598561778	0.9957394241	0.0238913006	-0.0890629279	-0.0233262188	0.9997006644	0.0073803248	
#timeindex 219
-6.7607436545	-1.4439027267	38.2344228753	0.0878472323	-0.0096830472	0.9960868950	1957.9740174933	52.2002706467	-172.1708633196	-53.6841247067	2096.4661262838	25.1144577123	0.0000000000	0.0000000000	0.0106666667	0.0100000000	1280	720	0.0000000000	0.0000000000	20.9730373096	36.0598561778	0.9958050366	0.0265485098	-0.0875642942	-0.0255967335	0.9996006279	0.0119746403	
#timeindex 220
-6.7756260853	-1.4455569838	38.4014583848	0.0868864177	-0.0127882742	0.9961361405	1958.1027153922	54.1343846806	-170.0974778758	-55.1999614284	2096.3371116621	31.7272503268	0.0000000000	0.0000000000	0.0106666667	0.0100000000	1280	720	-0.0000000000	0.0000000000	20.9730373096	36.0598561778	0.9958704910	0.0275321799	-0.0865097921	-0.0263194885	0.9995391133	0.0151276374	
#timeindex 221
-6.7911119966	-1.4466279233	38.5804711753	0.0840790114	-0.0132379604	0.9963711539	1958.5338218090	55.7201819179	-164.5310237254	-56.8959219002	2096.2775570544	32.6526836292	0.0000000000	0.0000000000	0.0106666667	0.0100000000	1280	720	-0.0000000000	0.0000000000	20.9730373096	36.0598561778	0.9960897472	0.0283386997	-0.0836787519	-0.0271281270	0.9995107176	0.0155688864	
#timeindex 222
-6.8051624781	-1.4486614977	38.7763776202	0.0830422543	-0.0123707550	0.9964692411	1958.7221483625	54.9045385103	-162.5514219441	-56.2131200008	2096.3253431377	30.7096197532	0.0000000000	0.0000000000	0.0106666667	0.0100000000	1280	720	-0.0000000000	0.0000000000	20.9730373096	36.0598561778	0.9961855282	0.0279238721	-0.0826719472	-0.0268025652	0.9995335021	0.0146424284	
#timeindex 223
-6.8207876867	-1.4591357823	38.9778848781	0.0854698925	-0.0143884349	0.9962368546	1958.2993396827	56.0195235135	-167.1987942369	-56.9631839335	2096.2351332926	35.1625015182	0.0000000000	0.0000000000	0.0106666667	0.0100000000	1280	720	0.0000000000	0.0000000000	20.9730373096	36.0598561778	0.9959704921	0.0284909417	-0.0850355520	-0.0271601977	0.9994904898	0.0167655743	
#timeindex 224
-6.8360322069	-1.4756436592	39.1664961441	0.0865426018	-0.0176703287	0.9960914303	1958.1696118148	54.6478004504	-169.1606245020	-54.8747539973	2096.1659413482	41.9529211443	0.0000000000	0.0000000000	0.0106666667	0.0100000000	1280	720	0.0000000000	-0.0000000000	20.9730373096	36.0598561778	0.9959045139	0.0277932978	-0.0860333183	-0.0261644287	0.9994574989	0.0200032644	
#timeindex 225
-6.8435289970	-1.4912136904	39.3658170615	0.0816675647	-0.0180816844	0.9964955903	1959.2964063246	40.4844156698	-159.8390811481	-39.9492073238	2096.5161574140	41.3158858444	0.0000000000	0.0000000000	0.0106666667	0.0100000000	1280	720	0.0000000000	-0.0000000000	20.9730373096	36.0598561778	0.9964775897	0.0205899489	-0.0812924792	-0.0190478884	0.9996244828	0.0196995243	
#timeindex 226
-6.8554678646	-1.5122201616	39.5310490272	0.0736579901	-0.0132535681	0.9971954891	1960.7504394652	24.6226718942	-144.5038607674	-24.1476539562	2096.9550478766	29.6539690455	0.0000000000	0.0000000000	0.0106666667	0.0100000000	1280	720	0.0000000000	-0.0000000000	20.9730373096	36.0598561778	0.9972170957	0.0125228325	-0.0734931470	-0.0115136657	0.9998337470	0.0141390914	
#timeindex 227
-6.8695594364	-1.5188542307	39.7335102923	0.0677318374	-0.0079303154	0.9976720445	1961.6440872224	16.7975731498	-133.0422647609	-16.7502954986	2097.1612416595	17.8071325219	0.0000000000	0.0000000000	0.0106666667	0.0100000000	1280	720	0.0000000000	-0.0000000000	20.9730373096	36.0598561778	0.9976715956	0.0085430694	-0.0676638996	-0.0079865855	0.9999320607	0.0084904882	
#timeindex 228
-6.8838609482	-1.5323602409	39.8815063207	0.0668319136	-0.0070979581	0.9977390011	1961.7958200876	11.8881929907	-131.3231082674	-11.6578004015	2097.2125616288	15.7005389474	0.0000000000	0.0000000000	0.0106666667	0.0100000000	1280	720	0.0000000000	-0.0000000000	20.9730373096	36.0598561778	0.9977487653	0.0060462102	-0.0667895546	-0.0055584703	0.9999565302	0.0074860588	
#timeindex 229
-6.8984036433	-1.5380614840	40.0472303911	0.0673220851	-0.0085252178	0.9976948720	1961.7557287366	5.8875493426	-132.3243180316	-5.0622764345	2097.2181115611	18.2621407327	0.0000000000	0.0000000000	0.0106666667	0.0100000000	1280	720	0.0000000000	0.0000000000	20.9730373096	36.0598561778	0.9977283753	0.0029943458	-0.0672987594	-0.0024137069	0.9999591764	0.0087074373	
#timeindex 230
-6.9167974110	-1.5443720908	40.2057648704	0.0669018676	-0.0078665848	0.9977285487	1961.8163769117	2.6601511232	-131.5270104880	-1.7274030204	2097.2369165461	16.6514816690	0.0000000000	0.0000000000	0.0106666667	0.0100000000	1280	720	0.0000000000	0.0000000000	20.9730373096	36.0598561778	0.9977592203	0.0013529249	-0.0668932572	-0.0008236304	0.9999681427	0.0079394708	
#timeindex 231
-6.9371430494	-1.5482668952	40.3878151270	0.0645768588	-0.0082857003	0.9978783375	1962.1182139162	1.2483616337	-126.9664673142	-0.2066207294	2097.2313140748	17.4273480208	0.0000000000	0.0000000000	0.0106666667	0.0100000000	1280	720	0.0000000000	0.0000000000	20.9730373096	36.0598561778	0.9979127315	0.0006349036	-0.0645738128	-0.0000985173	0.9999654714	0.0083094059	
#timeindex 232
-6.9561783613	-1.5535917732	40.5469420668	0.0630779925	-0.0090284711	0.9979677618	1962.3011680157	-3.5524923381	-124.0622158965	4.9763892946	2097.2148268068	18.6586617450	0.0000000000	0.0000000000	0.0106666667	0.0100000000	1280	720	-0.0000000000	-0.0000000000	20.9730373096	36.0598561778	0.9980057800	-0.0018067603	-0.0630967410	0.0023727557	0.9999576103	0.0088964996	
#timeindex 233
-6.9780442844	-1.5577736097	40.7281223674	0.0624586229	-0.0105214657	0.9979920938	1962.3684386409	-6.3584887242	-122.8804632890	8.1478443216	2097.1766733980	21.5998396990	0.0000000000	0.0000000000	0.0106666667	0.0100000000	1280	720	0.0000000000	-0.0000000000	20.9730373096	36.0598561778	0.9980399931	-0.0032338606	-0.0624957140	0.0038849139	0.9999394186	0.0102988610	
#timeindex 234
-7.0047716687	-1.5664278801	40.8741060719	0.0624451612	-0.0148000205	0.9979386560	1962.3816857679	-1.7715668720	-122.8206355812	3.8247071841	2097.0731696466	30.8615075805	0.0000000000	0.0000000000	0.0106666667	0.0100000000	1280	720	0.0000000000	0.0000000000	20.9730373096	36.0598561778	0.9980467305	-0.0009010003	-0.0624652863	0.0018236306	0.9998900678	0.0147148489	
#timeindex 235
-7.0325243696	-1.5695384443	41.0570505409	0.0642084806	-0.0184441940	0.9977660461	1962.1646981997	1.3159837089	-126.2453679811	1.0831468773	2096.9464916945	38.6933799255	0.0000000000	0.0000000000	0.0106666667	0.0100000000	1280	720	0.0000000000	0.0000000000	20.9730373096	36.0598561778	0.9979363729	0.0006692955	-0.0642070692	0.0005164473	0.9998296674	0.0184491065	
#timeindex 236
-7.0614262050	-1.5738425430	41.2239492498	0.0700600213	-0.0183521016	0.9973739488	1961.3858741356	6.9413731071	-137.6488201609	-4.6901328722	2096.9374439690	38.9139900446	0.0000000000	0.0000000000	0.0106666667	0.0100000000	1280	720	0.0000000000	0.0000000000	20.9730373096	36.0598561778	0.9975402711	0.0035303095	-0.0700067453	-0.0022362678	0.9998253534	0.0185542940	
#timeindex 237
-7.0902201583	-1.5771920008	41.4013228064	0.0785103845	-0.0174995264	0.9967596933	1960.1162425048	14.7657501765	-154.1305164507	-12.8220731506	2096.9234247931	37.8243953176	0.0000000000	0.0000000000	0.0106666667	0.0100000000	1280	720	0.0000000000	0.0000000000	20.9730373096	36.0598561778	0.9968945498	0.0075097056	-0.0783891631	-0.0061135986	0.9998186690	0.0180347723	
#timeindex 238
-7.1222805372	-1.5862902386	41.5325531485	0.0894058988	-0.0234502522	0.9957191727	1958.2223644011	26.4099649418	-175.2073426598	-23.6674688787	2096.5377308226	51.5008159263	0.0000000000	0.0000000000	0.0106666667	0.0100000000	1280	720	0.0000000000	0.0000000000	20.9730373096	36.0598561778	0.9959313433	0.0134318310	-0.0891086157	-0.0112847121	0.9996347691	0.0245557261	
#timeindex 239
-7.1598079810	-1.5748494664	41.5990695296	0.1001608913	-0.0349537430	0.9943570947	1956.1477986378	34.0731996520	-195.8436482519	-28.8378232045	2095.7070038935	76.5733221922	0.0000000000	0.0000000000	0.0106666667	0.0100000000	1280	720	0.0000000000	0.0000000000	20.9730373096	36.0598561778	0.9948762409	0.0173292717	-0.0996040242	-0.0137499508	0.9992386763	0.0365103638	
#timeindex 240
-7.1909422812	-1.5745809064	41.7456153863	0.1042400888	-0.0434356429	0.9936032150	1955.3798680641	31.6633237131	-203.7570443246	-24.1178261609	2095.0521341989	94.1160206169	0.0000000000	0.0000000000	0.0106666667	0.0100000000	1280	720	0.0000000000	-0.0000000000	20.9730373096	36.0598561778	0.9944856795	0.0161036341	-0.1036286943	-0.0114994437	0.9989264327	0.0448747691	
#timeindex 241
-7.2404973591	-1.5640273187	41.9078121355	0.1023364027	-0.0449246397	0.9937348929	1955.8630136107	21.0489214704	-200.4663126451	-12.7052489070	2095.0659453034	96.0218796267	0.0000000000	0.0000000000	0.0106666667	0.0100000000	1280	720	0.0000000000	0.0000000000	20.9730373096	36.0598561778	0.9947314022	0.0107052606	-0.1019550627	-0.0060578965	0.9989330178	0.0457834877	
#timeindex 242
-7.2521826020	-1.5787645003	42.0751042512	0.1004462372	-0.0403584408	0.9941236089	1956.2780469441	8.1800985697	-197.3302223252	-0.1792949436	2095.5768216317	85.0922580509	0.0000000000	0.0000000000	0.0106666667	0.0100000000	1280	720	-0.0000000000	0.0000000000	20.9730373096	36.0598561778	0.9949424838	0.0041603123	-0.1003600801	-0.0000854883	0.9991766050	0.0405722151	
#timeindex 243
-7.2787151036	-1.5840778761	42.2468015291	0.1011129294	-0.0336387242	0.9943060956	1956.1351893373	0.4135039047	-198.9092196496	6.6985631276	2096.1167322229	70.2332829520	0.0000000000	0.0000000000	0.0106666667	0.0100000000	1280	720	0.0000000000	0.0000000000	20.9730373096	36.0598561778	0.9948698279	0.0002103037	-0.1011631416	0.0031938927	0.9994340358	0.0334874162	
#timeindex 244
-7.3076226699	-1.5933709787	42.4429429277	0.1052532225	-0.0314722507	0.9939473108	1955.2998204639	4.6087149093	-206.9089158336	2.0598074441	2096.2590170279	66.1576194346	0.0000000000	0.0000000000	0.0106666667	0.0100000000	1280	720	-0.0000000000	0.0000000000	20.9730373096	36.0598561778	0.9944449681	0.0023439440	-0.1052317031	0.0009821217	0.9995018776	0.0315441290	
#timeindex 245
-7.3305986412	-1.5975412878	42.5963523988	0.1076501977	-0.0333549074	0.9936291487	1954.7930581261	10.6252437648	-211.4264214984	-3.7391394088	2096.1060887991	70.7688011969	0.0000000000	0.0000000000	0.0106666667	0.0100000000	1280	720	0.0000000000	0.0000000000	20.9730373096	36.0598561778	0.9941872341	0.0054038875	-0.1075292591	-0.0017828316	0.9994289610	0.0337427527	
#timeindex 246
-7.3535527054	-1.5991257368	42.7586074831	0.1058373716	-0.0324850851	0.9938526903	1955.1725160476	11.8073018654	-207.8243193795	-5.3157632145	2096.1589811175	69.0811727513	0.0000000000	0.0000000000	0.0106666667	0.0100000000	1280	720	0.0000000000	0.0000000000	20.9730373096	36.0598561778	0.9943802224	0.0060050698	-0.1056972678	-0.0025345700	0.9994541802	0.0329380870	
#timeindex 247
-7.3768801024	-1.6032204913	42.9230067548	0.1016823399	-0.0284877963	0.9944089437	1956.0283035143	9.0829718781	-199.7516034575	-3.5644858557	2096.4301327972	60.4229478539	0.0000000000	0.0000000000	0.0106666667	0.0100000000	1280	720	0.0000000000	0.0000000000	20.9730373096	36.0598561778	0.9948154669	0.0046195042	-0.1015915692	-0.0016995563	0.9995834661	0.0288098223	
#timeindex 248
-7.4030949802	-1.6064418914	43.0735887966	0.0967204528	-0.0255736805	0.9949829852	1957.0033677708	6.1692771117	-190.0781054314	-1.3624842892	2096.6074596055	54.0207723924	0.0000000000	0.0000000000	0.0106666667	0.0100000000	1280	720	-0.0000000000	0.0000000000	20.9730373096	36.0598561778	0.9953113744	0.0031376296	-0.0966717296	-0.0006496361	0.9996680160	0.0257572480	
#timeindex 249
-7.4276090008	-1.6098668349	43.2258677118	0.0947377707	-0.0233288220	0.9952288786	1957.3786900898	4.2074902986	-186.2280543273	0.1675363015	2096.7281381483	49.1327438252	0.0000000000	0.0000000000	0.0106666667	0.0100000000	1280	720	-0.0000000000	0.0000000000	20.9730373096	36.0598561778	0.9955022594	0.0021398854	-0.0947136340	0.0000798818	0.9997255558	0.0234266230	
#timeindex 250
-7.4509652391	-1.6129788458	43.4034710423	0.0953602491	-0.0228314422	0.9951809625	1957.2597553992	7.1651954055	-187.3841975204	-3.0425755589	2096.7430944171	48.3950269685	0.0000000000	0.0000000000	0.0106666667	0.0100000000	1280	720	-0.0000000000	0.0000000000	20.9730373096	36.0598561778	0.9954417704	0.0036441432	-0.0953016363	-0.0014507081	0.9997326870	0.0230748776	
#timeindex 251
-7.4692246838	-1.6193463689	43.5718540149	0.0978721004	-0.0233293050	0.9949255226	1956.7817581698	6.1242592141	-192.3475291074	-1.7129041316	2096.7227413528	49.3330694390	0.0000000000	0.0000000000	0.0106666667	0.0100000000	1280	720	0.0000000000	0.0000000000	20.9730373096	36.0598561778	0.9951986661	0.0031147340	-0.0978259346	-0.0008167172	0.9997229826	0.0235221388	
#timeindex 252
-7.4815698164	-1.6076082127	43.7612080713	0.0986722344	-0.0245615550	0.9948168275	1956.6178111224	-1.2549193708	-194.1007315465	6.4168860731	2096.6705880299	51.1293335598	0.0000000000	0.0000000000	0.0106666667	0.0100000000	1280	720	0.0000000000	0.0000000000	20.9730373096	36.0598561778	0.9951152843	-0.0006382388	-0.0987175950	0.0030595884	0.9996981158	0.0243786023	
#timeindex 253
-7.4979453594	-1.6066451610	43.9281271669	0.0957707930	-0.0246508637	0.9950981309	1957.1767414819	-0.8127356420	-188.3838360208	5.8160810501	2096.6662257768	51.3794781514	0.0000000000	0.0000000000	0.0106666667	0.0100000000	1280	720	-0.0000000000	0.0000000000	20.9730373096	36.0598561778	0.9953995504	-0.0004133488	-0.0958100419	0.0027731229	0.9996960358	0.0244978719	
#timeindex 254
-7.5163295274	-1.5927580898	44.1096633074	0.0912852127	-0.0270962636	0.9954560776	1958.0118800963	2.9228728104	-179.4738471953	2.0837111057	2096.5313433483	56.8763957466	0.0000000000	0.0000000000	0.0106666667	0.0100000000	1280	720	-0.0000000000	-0.0000000000	20.9730373096	36.0598561778	0.9958242932	0.0014865424	-0.0912785151	0.0009935190	0.9996317235	0.0271188168	
#timeindex 255
-7.5179445454	-1.5977561831	44.2645023414	0.0887657121	-0.0382511302	0.9953177881	1958.4539703848	1.5709461344	-174.6009897542	5.4561008730	2095.7681655197	80.0560256583	0.0000000000	0.0000000000	0.0106666667	0.0100000000	1280	720	-0.0000000000	0.0000000000	20.9730373096	36.0598561778	0.9960491357	0.0007989667	-0.0888002310	0.0026014834	0.9992678383	0.0381709261	
#timeindex 256
-7.5332750294	-1.5809257294	44.4166554891	0.0867099023	-0.0500807440	0.9949740258	1958.7566095241	-6.8080770063	-171.0442116647	16.3625399078	2094.6593878801	104.0060380009	0.0000000000	0.0000000000	0.0106666667	0.0100000000	1280	720	0.0000000000	0.0000000000	20.9730373096	36.0598561778	0.9962030547	-0.0034625165	-0.0869912910	0.0078017026	0.9987391702	0.0495903557	
#timeindex 257
-7.5344387403	-1.5863226491	44.5322890465	0.0823078312	-0.0576250607	0.9949395827	1959.4529175204	-10.2590252950	-162.6927903492	20.8877784183	2093.7900361458	119.5404748863	0.0000000000	0.0000000000	0.0106666667	0.0100000000	1280	720	0.0000000000	0.0000000000	20.9730373096	36.0598561778	0.9965571897	-0.0052176326	-0.0827438457	0.0099593483	0.9983246610	0.0569972165	
#timeindex 258
-7.5525969181	-1.5887590697	44.6999517216	0.0822406741	-0.0577206971	0.9949395925	1959.3749438698	-17.7328580160	-162.9886581712	28.8543375880	2093.7216056170	119.0806670370	0.0000000000	0.0000000000	0.0106666667	0.0100000000	1280	720	0.0000000000	0.0000000000	20.9730373096	36.0598561778	0.9965175331	-0.0090187455	-0.0828943210	0.0137578249	0.9982920331	0.0567779789	
#timeindex 259
-7.5656652838	-1.5947950343	44.8588276843	0.0844290821	-0.0496546171	0.9951915138	1958.8449435095	-29.2103426397	-167.6400035219	39.8869176521	2094.4848599604	101.1194594713	0.0000000000	0.0000000000	0.0106666667	0.0100000000	1280	720	0.0000000000	0.0000000000	20.9730373096	36.0598561778	0.9962479805	-0.0148560737	-0.0852599464	0.0190181885	0.9986559548	0.0482140274	
#timeindex 260
-7.5764554175	-1.6103282378	45.0413312816	0.0855986591	-0.0415162680	0.9954643485	1958.5824999219	-33.8166227997	-169.8262483624	43.4280473825	2095.1850147558	83.6462702707	0.0000000000	0.0000000000	0.0106666667	0.0100000000	1280	720	-0.0000000000	0.0000000000	20.9730373096	36.0598561778	0.9961145044	-0.0171987795	-0.0863718476	0.0207066086	0.9989897905	0.0398827643	
#timeindex 261
-7.5892397715	-1.6145530786	45.1973031074	0.0832768054	-0.0418352949	0.9956479206	1958.9684967941	-33.9929848422	-165.2780480300	43.4768005874	2095.1538540714	84.3980773906	0.0000000000	0.0000000000	0.0106666667	0.0100000000	1280	720	-0.0000000000	0.0000000000	20.9730373096	36.0598561778	0.9963108184	-0.0172884753	-0.0840586807	0.0207298542	0.9989749330	0.0402412279	
#timeindex 262
-7.5927841912	-1.6275386919	45.3859283031	0.0779159863	-0.0441252048	0.9959829644	1959.7371012510	-37.9242904044	-154.9908700165	47.5850144623	2094.8704363377	89.0868185761	0.0000000000	0.0000000000	0.0106666667	0.0100000000	1280	720	-0.0000000000	0.0000000000	20.9730373096	36.0598561778	0.9967017225	-0.0192878961	-0.0788267299	0.0226886615	0.9988397987	0.0424768322	
#timeindex 263
-7.6177132774	-1.6314726317	45.5229296947	0.0758541766	-0.0421396183	0.9962280846	1959.9986889408	-40.5946100057	-150.9541142186	49.9228152839	2094.9933223053	84.8152810366	0.0000000000	0.0000000000	0.0106666667	0.0100000000	1280	720	0.0000000000	0.0000000000	20.9730373096	36.0598561778	0.9968347633	-0.0206459926	-0.0767736783	0.0238033312	0.9988983910	0.0404401517	
#timeindex 264
-7.6439028435	-1.6360031138	45.6989685934	0.0765251513	-0.0387202804	0.9963155329	1959.9805680782	-37.4526708127	-151.9980191181	46.0800891698	2095.3501392884	77.8932542204	0.0000000000	0.0000000000	0.0106666667	0.0100000000	1280	720	0.0000000000	0.0000000000	20.9730373096	36.0598561778	0.9968255472	-0.0190480353	-0.0773045973	0.0219711091	0.9990685223	0.0371397109	
#timeindex 265
-7.6701633877	-1.6420824303	45.8407906338	0.0769520639	-0.0361484615	0.9963792795	1959.9353389213	-36.9246666072	-152.7087550014	45.1319032041	2095.5628957007	72.5410322691	0.0000000000	0.0000000000	0.0106666667	0.0100000000	1280	720	0.0000000000	0.0000000000	20.9730373096	36.0598561778	0.9968025441	-0.0187794979	-0.0776660701	0.0215190115	0.9991699651	0.0345877572	
#timeindex 266
-7.6947494971	-1.6441669769	45.9961601957	0.0758631132	-0.0344823215	0.9965218299	1960.0342751635	-40.1765079800	-150.6035059412	48.2452541513	2095.6183396990	68.8411915635	0.0000000000	0.0000000000	0.0106666667	0.0100000000	1280	720	0.0000000000	0.0000000000	20.9730373096	36.0598561778	0.9968528621	-0.0204333503	-0.0765953626	0.0230034656	0.9991964010	0.0328236633	
#timeindex 267
-7.7203835437	-1.6510388987	46.1452163053	0.0734921338	-0.0371222030	0.9966046600	1960.5268726917	-33.2164162369	-145.8114493337	41.0842425937	2095.5586260380	75.0271266608	0.0000000000	0.0000000000	0.0106666667	0.0100000000	1280	720	-0.0000000000	-0.0000000000	20.9730373096	36.0598561778	0.9971033920	-0.0168935207	-0.0741581729	0.0195890762	0.9991679293	0.0357731336	
#timeindex 268
-7.7512541405	-1.6585038126	46.3093025005	0.0705765401	-0.0402459876	0.9966941419	1961.1503323558	-20.1824869123	-139.6852488052	27.4533730760	2095.4939191363	82.6709565478	0.0000000000	0.0000000000	0.0106666667	0.0100000000	1280	720	-0.0000000000	0.0000000000	20.9730373096	36.0598561778	0.9974204771	-0.0102646010	-0.0710424516	0.0130898413	0.9991370769	0.0394177321	
#timeindex 269
-7.7874594253	-1.6623664645	46.5325922194	0.0696435221	-0.0372684557	0.9968755399	1961.3772013367	-11.5958371144	-137.4588602061	17.7946515517	2095.8102140708	77.1092527487	0.0000000000	0.0000000000	0.0106666667	0.0100000000	1280	720	-0.0000000000	0.0000000000	20.9730373096	36.0598561778	0.9975358602	-0.0058975211	-0.0699101337	0.0084845372	0.9992878872	0.0367658969	
#timeindex 270
-7.8178946355	-1.6669854659	46.7313418588	0.0724481420	-0.0300943598	0.9969180489	1961.0098449170	-9.0934720801	-142.7852391349	14.2533085917	2096.3313426785	62.2469660692	0.0000000000	0.0000000000	0.0106666667	0.0100000000	1280	720	-0.0000000000	0.0000000000	20.9730373096	36.0598561778	0.9973490266	-0.0046248445	-0.0726190741	0.0067960155	0.9995363627	0.0296795191	
#timeindex 271
-7.8595222620	-1.6702076379	46.8833609944	0.0768383762	-0.0293432197	0.9966116793	1960.3822695588	-5.8616569574	-151.3173016809	10.9673947913	2096.3912976782	60.8784293284	0.0000000000	0.0000000000	0.0106666667	0.0100000000	1280	720	-0.0000000000	0.0000000000	20.9730373096	36.0598561778	0.9970298484	-0.0029811772	-0.0769583916	0.0052292830	0.9995649494	0.0290269971	
#timeindex 272
-7.8883539175	-1.6746366032	47.0516364493	0.0806710049	-0.0328963517	0.9961977811	1959.7535565118	-10.1866920266	-159.0350799533	16.4049428419	2096.1404417777	67.8901029695	0.0000000000	0.0000000000	0.0106666667	0.0100000000	1280	720	0.0000000000	0.0000000000	20.9730373096	36.0598561778	0.9967100915	-0.0051808447	-0.0808835726	0.0078219204	0.9994453406	0.0323701818	
#timeindex 273
-7.9151149321	-1.6791503079	47.2158890377	0.0809496130	-0.0335807290	0.9961523452	1959.6963685391	-11.6129664074	-159.6408774614	18.0577501466	2096.0842673121	69.1924986790	0.0000000000	0.0000000000	0.0106666667	0.0100000000	1280	720	0.0000000000	0.0000000000	20.9730373096	36.0598561778	0.9966810063	-0.0059062328	-0.0811916749	0.0086099833	0.9994185565	0.0329911675	
#timeindex 274
-7.9521027098	-1.6876912911	47.4058868782	0.0781720711	-0.0352062323	0.9963180459	1960.1747403405	-5.5578630611	-153.9935878542	11.6895288367	2095.9951621854	73.1476240074	0.0000000000	0.0000000000	0.0106666667	0.0100000000	1280	720	0.0000000000	0.0000000000	20.9730373096	36.0598561778	0.9969243012	-0.0028266708	-0.0783195226	0.0055735985	0.9993760709	0.0348769818	
#timeindex 275
-7.9765459323	-1.6989767094	47.5720122868	0.0765385637	-0.0348113499	0.9964587388	1960.4198848145	-6.4354945571	-150.8057931399	12.4399552291	2096.0213171223	72.2691190594	0.0000000000	0.0000000000	0.0106666667	0.0100000000	1280	720	0.0000000000	0.0000000000	20.9730373096	36.0598561778	0.9970489791	-0.0032730250	-0.0766982437	0.0059314038	0.9993885417	0.0344581083	
#timeindex 276
-8.0170189939	-1.7242238941	47.7353378522	0.0769531383	-0.0270063076	0.9966688888	1960.2997499277	-14.9517898387	-151.7605417260	20.2671740131	2096.4781049507	55.2425289699	0.0000000000	0.0000000000	0.0106666667	0.0100000000	1280	720	0.0000000000	0.0000000000	20.9730373096	36.0598561778	0.9969878798	-0.0076043234	-0.0771838188	0.0096634425	0.9996063393	0.0263397848	
#timeindex 277
-8.0412447890	-1.7351247287	47.9021742624	0.0759469428	-0.0196160477	0.9969188897	1960.4507306468	-16.1885275971	-149.6689409710	20.3461995067	2096.8290817355	39.7086141873	0.0000000000	0.0000000000	0.0106666667	0.0100000000	1280	720	-0.0000000000	0.0000000000	20.9730373096	36.0598561778	0.9970646670	-0.0082333152	-0.0761200526	0.0097011221	0.9997736860	0.0189331729	
#timeindex 278
-8.0629588175	-1.7472461131	48.0865333938	0.0739125951	-0.0176471460	0.9971085731	1960.8010563196	-10.4522206868	-145.5331447797	13.8562597495	2096.9474941681	36.0853246444	0.0000000000	0.0000000000	0.0106666667	0.0100000000	1280	720	0.0000000000	0.0000000000	20.9730373096	36.0598561778	0.9972428389	-0.0053158897	-0.0740166301	0.0066067015	0.9998301454	0.0172055788	
#timeindex 279
-8.0838976054	-1.7549688121	48.2378348820	0.0730009170	-0.0163248726	0.9971982574	1960.9513033187	-7.5408399811	-143.6768922123	10.5229007508	2097.0088186590	33.5592448252	0.0000000000	0.0000000000	0.0106666667	0.0100000000	1280	720	-0.0000000000	0.0000000000	20.9730373096	36.0598561778	0.9973192530	-0.0038351921	-0.0730725595	0.0050173471	0.9998593850	0.0160011372	
#timeindex 280
-8.1053109132	-1.7601999848	48.4064178850	0.0712821014	-0.0153215092	0.9973385149	1961.2111589648	-3.9352851842	-140.2327746766	6.4782818376	2097.0533457391	31.7527459558	0.0000000000	0.0000000000	0.0106666667	0.0100000000	1280	720	0.0000000000	0.0000000000	20.9730373096	36.0598561778	0.9974514128	-0.0020014447	-0.0713209175	0.0030888620	0.9998806157	0.0151397938	
#timeindex 281
-8.1273578122	-1.7646722737	48.5544455421	0.0690290577	-0.0149234458	0.9975030225	1961.5317546363	0.8323065654	-135.7291804659	1.2750066709	2097.0699855747	31.2856172485	0.0000000000	0.0000000000	0.0106666667	0.0100000000	1280	720	0.0000000000	0.0000000000	20.9730373096	36.0598561778	0.9976144644	0.0004233024	-0.0690304367	0.0006079266	0.9998885496	0.0149170656	
#timeindex 282
-8.1463910724	-1.7606073506	48.7249157950	0.0686853005	-0.0150392471	0.9975250125	1961.5785139951	3.0409530491	-135.0200490595	-1.0696819756	2097.0640259438	31.6901681894	0.0000000000	0.0000000000	0.0106666667	0.0100000000	1280	720	0.0000000000	0.0000000000	20.9730373096	36.0598561778	0.9976382457	0.0015465968	-0.0686697799	-0.0005100272	0.9998857080	0.0151099565	
#timeindex 283
-8.1605613555	-1.7589677798	48.8738087608	0.0693264465	-0.0160147128	0.9974654745	1961.4901370187	4.5656579409	-136.2553659748	-2.5301286573	2097.0291099370	33.8445034317	0.0000000000	0.0000000000	0.0106666667	0.0100000000	1280	720	0.0000000000	0.0000000000	20.9730373096	36.0598561778	0.9975932981	0.0023220457	-0.0692980492	-0.0012063721	0.9998690600	0.0161371493	
#timeindex 284
-8.1737176415	-1.7550455845	49.0514157426	0.0719569317	-0.0204036344	0.9971990231	1961.1252579391	3.2421578102	-141.4465930909	-0.3701888344	2096.8642712009	42.9305370147	0.0000000000	0.0000000000	0.0106666667	0.0100000000	1280	720	-0.0000000000	0.0000000000	20.9730373096	36.0598561778	0.9974077245	0.0016489274	-0.0719382528	-0.0001765070	0.9997904644	0.0204693943	
#timeindex 285
-8.1886369765	-1.7490563361	49.2072440176	0.0750303761	-0.0273625325	0.9968057657	1960.6779117126	1.2097384563	-147.5486044191	3.0201911568	2096.5180525998	57.3225388077	0.0000000000	0.0000000000	0.0106666667	0.0100000000	1280	720	-0.0000000000	0.0000000000	20.9730373096	36.0598561778	0.9971802089	0.0006152603	-0.0750416717	0.0014400352	0.9996253865	0.0273315390	
#timeindex 286
-8.2010618405	-1.7452200758	49.3930471314	0.0769632920	-0.0319306052	0.9965224976	1960.3857713301	0.6272483090	-151.3841528592	4.4893019319	2096.2341843085	66.8208843982	0.0000000000	0.0000000000	0.0106666667	0.0100000000	1280	720	-0.0000000000	-0.0000000000	20.9730373096	36.0598561778	0.9970316293	0.0003190119	-0.0769923914	0.0021405111	0.9994900373	0.0318603755	
#timeindex 287
-8.2204054896	-1.7393268816	49.5410531846	0.0747066310	-0.0338303409	0.9966315404	1960.7246242376	1.4754008819	-146.9241256950	3.7333996792	2096.1026229391	70.8716849065	0.0000000000	0.0000000000	0.0106666667	0.0100000000	1280	720	-0.0000000000	0.0000000000	20.9730373096	36.0598561778	0.9972039664	0.0007503734	-0.0747240684	0.0017800949	0.9994273085	0.0337918080	
#timeindex 288
-8.2248008577	-1.7371799730	49.7094053856	0.0683565395	-0.0397614856	0.9968683001	1961.6224240172	3.6457753550	-134.3655518565	1.8220971412	2095.6415738194	83.4626499033	0.0000000000	0.0000000000	0.0106666667	0.0100000000	1280	720	0.0000000000	0.0000000000	20.9730373096	36.0598561778	0.9976605779	0.0018542031	-0.0683369095	0.0008687808	0.9992074791	0.0397952136	
#timeindex 289
-8.2416702830	-1.7327671006	49.8514986732	0.0612325533	-0.0455396463	0.9970841063	1962.5167975289	-2.4100671820	-120.6314163231	8.4229884901	2095.1262685839	95.1730625831	0.0000000000	0.0000000000	0.0106666667	0.0100000000	1280	720	-0.0000000000	0.0000000000	20.9730373096	36.0598561778	0.9981154469	-0.0012257349	-0.0613518723	0.0040161033	0.9989617801	0.0453787695	
#timeindex 290
-8.2625073645	-1.7330599975	50.0339738979	0.0568989084	-0.0499776330	0.9971282517	1962.9935858022	-7.4388347638	-112.3867138389	13.9032471960	2094.6677799789	104.1946789555	0.0000000000	0.0000000000	0.0106666667	0.0100000000	1280	720	-0.0000000000	0.0000000000	20.9730373096	36.0598561778	0.9983579364	-0.0037833133	-0.0571587032	0.0066291053	0.9987431716	0.0496803002	
#timeindex 291
-8.2837485539	-1.7373602696	50.1857108028	0.0578066063	-0.0490848153	0.9971203925	1962.8161048920	-15.9655500227	-114.5773415644	22.9798220328	2094.7064450447	101.7829885312	0.0000000000	0.0000000000	0.0106666667	0.0100000000	1280	720	-0.0000000000	0.0000000000	20.9730373096	36.0598561778	0.9982676715	-0.0081199112	-0.0582728334	0.0109568403	0.9987616072	0.0485303998	
#timeindex 292
-8.2820811252	-1.7381292869	50.3448701536	0.0604781624	-0.0430922022	0.9972389152	1962.3537235770	-27.4135278871	-120.1927188435	34.6850194681	2095.1515021976	88.4311718261	0.0000000000	0.0000000000	0.0106666667	0.0100000000	1280	720	-0.0000000000	0.0000000000	20.9730373096	36.0598561778	0.9980325092	-0.0139422326	-0.0611287554	0.0165379096	0.9989738116	0.0421642180	
#timeindex 293
-8.2959338501	-1.7483600235	50.4919949429	0.0621199903	-0.0341532071	0.9974841679	1962.1217054174	-30.3602163122	-123.2339158109	36.7921797881	2095.8300014375	69.4685574048	0.0000000000	0.0000000000	0.0106666667	0.0100000000	1280	720	0.0000000000	0.0000000000	20.9730373096	36.0598561778	0.9979145072	-0.0154408874	-0.0626754763	0.0175426092	0.9992973218	0.0331227930	
#timeindex 294
-8.3024947862	-1.7671010517	50.6952446873	0.0590206512	-0.0281074523	0.9978609792	1962.5871016386	-25.3147114586	-116.7945267396	30.4462499728	2096.3012011583	57.2471813444	0.0000000000	0.0000000000	0.0106666667	0.0100000000	1280	720	0.0000000000	0.0000000000	20.9730373096	36.0598561778	0.9981512028	-0.0128747966	-0.0594004706	0.0145168530	0.9995219911	0.0272956084	
#timeindex 295
-8.3234063347	-1.7756005176	50.8370574639	0.0529625280	-0.0277520045	0.9982107978	1963.2567466840	-25.5701784771	-104.8763089707	30.3306197977	2096.3185044024	56.6720521039	0.0000000000	0.0000000000	0.0106666667	0.0100000000	1280	720	0.0000000000	0.0000000000	20.9730373096	36.0598561778	0.9984917773	-0.0130047244	-0.0533389901	0.0144617202	0.9995302414	0.0270213853	
#timeindex 296
-8.3326813381	-1.7810716769	50.9977918044	0.0480385075	-0.0282703427	0.9984453363	1963.6599730201	-31.2319348905	-95.3624884971	36.1379306277	2096.2007612899	57.6138718077	0.0000000000	0.0000000000	0.0106666667	0.0100000000	1280	720	0.0000000000	-0.0000000000	20.9730373096	36.0598561778	0.9986968540	-0.0158842343	-0.0485003608	0.0172306615	0.9994741011	0.0274704474	
#timeindex 297
-8.3529234745	-1.7838713089	51.1543941925	0.0457991245	-0.0258231657	0.9986168456	1963.7912438414	-35.7083367212	-90.9878723316	40.5424442454	2096.2583277165	52.3476224935	0.0000000000	0.0000000000	0.0106666667	0.0100000000	1280	720	0.0000000000	-0.0000000000	20.9730373096	36.0598561778	0.9987636169	-0.0181608853	-0.0462754770	0.0193307453	0.9995015490	0.0249594857	
#timeindex 298
-8.3722330388	-1.7807423954	51.3350507652	0.0475162347	-0.0233078313	0.9985984941	1963.5721470096	-38.9124172208	-94.3407382044	43.7938765378	2096.3230994599	46.8454793489	0.0000000000	0.0000000000	0.0106666667	0.0100000000	1280	720	0.0000000000	-0.0000000000	20.9730373096	36.0598561778	0.9986521866	-0.0197904470	-0.0479807094	0.0208810369	0.9995324323	0.0223360492	
#timeindex 299
-8.3902120292	-1.7758803136	51.4851237856	0.0490359823	-0.0224757874	0.9985440959	1963.2828504275	-45.3566926988	-97.4327832697	50.6459053068	2096.2156918217	44.6956991548	0.0000000000	0.0000000000	0.0106666667	0.0100000000	1280	720	-0.0000000000	-0.0000000000	20.9730373096	36.0598561778	0.9985050534	-0.0230679379	-0.0495532910	0.0241481024	0.9994812200	0.0213110283	
#timeindex 300
-8.4017543494	-1.7669161736	51.6637002664	0.0501653556	-0.0227640848	0.9984814638	1963.0363828126	-50.6162515352	-99.7801706014	56.3315127407	2096.0650119853	44.9573808205	0.0000000000	0.0000000000	0.0106666667	0.0100000000	1280	720	0.0000000000	0.0000000000	20.9730373096	36.0598561778	0.9983797025	-0.0257428943	-0.0507471476	0.0268590152	0.9994093755	0.0214357988	
#timeindex 301
-8.4248097377	-1.7613986954	51.8104687075	0.0500041085	-0.0256803687	0.9984188038	1962.9750891343	-53.1305493706	-99.6788431551	59.3134175890	2095.8459648994	50.9367234476	0.0000000000	0.0000000000	0.0106666667	0.0100000000	1280	720	0.0000000000	0.0000000000	20.9730373096	36.0598561778	0.9983485292	-0.0270216398	-0.0506956135	0.0282807953	0.9993049333	0.0242867653	
#timeindex 302
-8.4497254947	-1.7534601075	51.9708849322	0.0488908025	-0.0288767399	0.9983866101	1963.1708055698	-49.6963770981	-97.5734896001	55.9293885330	2095.7588180582	57.8776288075	0.0000000000	0.0000000000	0.0106666667	0.0100000000	1280	720	0.0000000000	0.0000000000	20.9730373096	36.0598561778	0.9984480685	-0.0252750558	-0.0496248528	0.0266672813	0.9992633814	0.0275962074	
#timeindex 303
-8.4839679777	-1.7515456909	52.1307458542	0.0506528085	-0.0283951542	0.9983125804	1963.2360222168	-39.8111015815	-100.7438577381	45.4448649817	2096.0279238817	57.3118350958	0.0000000000	0.0000000000	0.0106666667	0.0100000000	1280	720	0.0000000000	0.0000000000	20.9730373096	36.0598561778	0.9984812370	-0.0202475085	-0.0512372688	0.0216682326	0.9993916918	0.0273264355	
#timeindex 304
-8.5189426812	-1.7416941542	52.3286732240	0.0535388979	-0.0299786258	0.9981156588	1963.1465957848	-28.5529545042	-106.1607265353	33.7938172678	2096.1398252200	61.1453262966	0.0000000000	0.0000000000	0.0106666667	0.0100000000	1280	720	-0.0000000000	0.0000000000	20.9730373096	36.0598561778	0.9984357557	-0.0145217330	-0.0539922314	0.0161129820	0.9994450466	0.0291542543	
#timeindex 305
-8.5508074201	-1.7305123910	52.4854419639	0.0559762300	-0.0342866640	0.9978432173	1962.9393769493	-24.2723653604	-110.9494583698	29.8923754006	2095.9106940842	70.3402317563	0.0000000000	0.0000000000	0.0106666667	0.0100000000	1280	720	-0.0000000000	0.0000000000	20.9730373096	36.0598561778	0.9983303664	-0.0123446703	-0.0564277301	0.0142527641	0.9993357963	0.0335384097	
#timeindex 306
-8.5674688998	-1.7113809233	52.6546484333	0.0588428019	-0.0423509658	0.9973684978	1962.5301500224	-28.5761924794	-116.9988849823	35.6864106012	2095.2003091119	86.8624469068	0.0000000000	0.0000000000	0.0106666667	0.0100000000	1280	720	0.0000000000	0.0000000000	20.9730373096	36.0598561778	0.9981222378	-0.0145335516	-0.0595044050	0.0170153755	0.9989970829	0.0414162458	
#timeindex 307
