# Text export 
# created by voodoo camera tracker - www.digilab.uni-hannover.de
# Creation date: Tue Jun 25 21:14:21 2019
# The camera (one line per frame) 
#
# Description of the CAHV camera model:
# -------------
# (Cx, Cy, Cz)    : CameraPosition [mm]
# (Ax, Ay, Az)    : RotationAxis2  [unit vector]
# (Hx, Hy, Hz)    : RotationAxis0 [pel] (including FocalLength, PixelSizeX, and Principal Point offset) 
# (Vx, Vy, Vz)    : RotationAxis1 [pel] (including FocalLength, PixelSizeY, and Principal Point offset) 
# (K3, K5)        : Radialdistortion;	K3 [1/(mm)^2]	K5 [1/(mm)^4]
# (sx, sy)        : PixelSize	[mm/pel]
# (Width, Height) : ImageSize	[pel]
# -------------
# (ppx, ppy)      : Principal Point offset [pel]
# f               : Focal Length [mm]
# fov             : Horizontal Field of View [degree] = (2*atan(0.5*Width*sx/f)*180/PI;
# (H0x, H0y, H0z) : RotationAxis0 [unit vector]
# (V0x, V0y, V0z) : RotationAxis1 [unit vector]
# -------------
# (x, y)          : image coordinates [pel]
# (X, Y, Z)       : 3D coordinates [mm]
# -------------
# Projection of 3D coordinates in the camera image:
#  [ x' ] =  [ Hx Hy Hz ] [ 1 0 0 -Cx] [ X ]
#  [ y' ] =  [ Vx Vy Vz ] [ 0 1 0 -Cy] [ Y ]
#  [ z' ] =  [ Ax Ay Az ] [ 0 0 1 -Cz] [ Z ]
#                                      [ 1 ]
# or 
#  [ x' ] =  [f/sx 0    ppx] [ H0x H0y H0z ] [ 1 0 0 -Cx] [ X ]
#  [ y' ] =  [0    f/sy ppy] [ V0x V0y V0z ] [ 0 1 0 -Cy] [ Y ]
#  [ z' ] =  [0    0    1  ] [ Ax  Ay  Az  ] [ 0 0 1 -Cz] [ Z ]
#                                                         [ 1 ]
# then x = x'/z' and y = y'/z' , if the origin of the image coordinates is in the center of the image
# or x = x'/z' + 0.5*(Width-1) and y = y'/z' + 0.5*(Height-1) , if the origin of the image coordinates is in the upper left corner
# -------------
# Cx Cy Cz Ax Ay Az Hx Hy Hz Vx Vy Vz K3 K5 sx sy Width Height ppx ppy f fov H0x H0y H0z V0x V0y V0z
#
#timeindex 1
6.6092286062	5.8226508499	98.1295425422	-0.0001599049	-0.0071994892	0.9999740706	1592.1639953805	-9.7580339228	0.1843467465	10.4068839467	1698.2642569993	12.2286164520	0.0000000000	0.0000000000	0.0106666667	0.0100000000	1280	720	0.0000000000	-0.0000000000	16.9834016878	43.7964158396	0.9999812128	-0.0061286718	0.0001157816	0.0061276793	0.9999553024	0.0072003340	
#timeindex 2
6.6091145410	5.8225821234	98.1291005200	-0.0001598139	-0.0071974944	0.9999740849	1592.1640208082	-9.7538859552	0.1842511248	10.4024608385	1698.2643084997	12.2252271768	0.0000000000	0.0000000000	0.0106666667	0.0100000000	1280	720	0.0000000000	-0.0000000000	16.9834016878	43.7964158396	0.9999812288	-0.0061260666	0.0001157215	0.0061250750	0.9999553327	0.0071983384	
#timeindex 3
6.6027611231	5.8259231824	98.1707130858	-0.0021063532	-0.0067954287	0.9999746924	1592.1677748859	-8.5061587806	3.2959480312	9.0491158724	1698.2767182552	11.5598715048	0.0000000000	0.0000000000	0.0106666667	0.0100000000	1280	720	-0.0000000000	0.0000000000	16.9834016878	43.7964158396	0.9999835866	-0.0053424138	0.0020700670	0.0053282116	0.9999626397	0.0068065702	
#timeindex 4
6.5958130079	5.8307543405	98.2245247986	-0.0056736172	-0.0053869163	0.9999693951	1592.1289159632	-11.2447619691	8.9728299920	11.9424874030	1698.2731706402	9.2164946294	0.0000000000	0.0000000000	0.0106666667	0.0100000000	1280	720	0.0000000000	0.0000000000	16.9834016878	43.7964158396	0.9999591807	-0.0070624325	0.0056355133	0.0070318583	0.9999605508	0.0054267660	
#timeindex 5
6.5935173540	5.8373831383	98.2842313999	-0.0110746292	-0.0034207453	0.9999328233	1592.0523461724	-11.8866796019	17.5919098108	12.6140838945	1698.2829026286	5.9494892283	0.0000000000	0.0000000000	0.0106666667	0.0100000000	1280	720	0.0000000000	0.0000000000	16.9834016878	43.7964158396	0.9999110899	-0.0074655980	0.0110488488	0.0074273012	0.9999662811	0.0035031199	
#timeindex 6
6.5886809877	5.8474737449	98.3430186627	-0.0163837276	-0.0017480637	0.9998642497	1591.9430275605	-10.9261704015	26.0663997841	11.6043962059	1698.2975845844	3.1592844911	0.0000000000	0.0000000000	0.0106666667	0.0100000000	1280	720	0.0000000000	-0.0000000000	16.9834016878	43.7964158396	0.9998424308	-0.0068623365	0.0163713726	0.0068327868	0.9999749260	0.0018602189	
#timeindex 7
6.5861229428	5.8614551326	98.4173637009	-0.0195807104	0.0000829910	0.9998082761	1591.8451658202	-11.7660836494	31.1764129796	12.5508428510	1698.2937891452	0.1048313347	0.0000000000	0.0000000000	0.0106666667	0.0100000000	1280	720	0.0000000000	-0.0000000000	16.9834016878	43.7964158396	0.9997809674	-0.0073898560	0.0195807890	0.0073900642	0.9999726912	0.0000617258	
#timeindex 8
6.5797177141	5.8772594655	98.4893269582	-0.0214451887	0.0025977860	0.9997666505	1591.7682727363	-13.6742401906	34.1792694650	14.6771623905	1698.2718029272	-4.0979484679	0.0000000000	0.0000000000	0.0106666667	0.0100000000	1280	720	0.0000000000	0.0000000000	16.9834016878	43.7964158396	0.9997326736	-0.0085883008	0.0214667757	0.0086420628	0.9999597455	-0.0024129138	
#timeindex 9
6.5714708081	5.8965697167	98.5647419277	-0.0225345926	0.0057767289	0.9997293742	1591.7458036376	-11.6024237354	35.9460952198	12.5940636437	1698.2667378069	-9.5292032631	0.0000000000	0.0000000000	0.0106666667	0.0100000000	1280	720	0.0000000000	0.0000000000	16.9834016878	43.7964158396	0.9997185615	-0.0072870670	0.0225764557	0.0074155130	0.9999567631	-0.0056108920	
#timeindex 10
6.5598004141	5.9142400410	98.6568388176	-0.0227064671	0.0095523944	0.9996965380	1591.7406815993	-11.3188387814	36.2619335711	12.4392450505	1698.2197644953	-15.9444521756	0.0000000000	0.0000000000	0.0106666667	0.0100000000	1280	720	0.0000000000	-0.0000000000	16.9834016878	43.7964158396	0.9997153446	-0.0071089575	0.0227748225	0.0073243543	0.9999291047	-0.0093882559	
#timeindex 11
6.5558278104	5.9387694837	98.7681196661	-0.0225114757	0.0130322378	0.9996616399	1591.7554573068	-10.0849667674	35.9763668957	11.2537674516	1698.1618686367	-21.8849153888	0.0000000000	0.0000000000	0.0106666667	0.0100000000	1280	720	0.0000000000	0.0000000000	16.9834016878	43.7964158396	0.9997246247	-0.0063340066	0.0225954682	0.0066263330	0.9998950151	-0.0128860612	
#timeindex 12
6.5434738328	5.9598922094	98.8566006339	-0.0227663273	0.0138094992	0.9996454332	1591.7660123761	-6.4614904573	36.3407812424	7.4251172445	1698.1642358233	-23.2900128750	0.0000000000	0.0000000000	0.0106666667	0.0100000000	1280	720	0.0000000000	0.0000000000	16.9834016878	43.7964158396	0.9997312539	-0.0040582309	0.0228243439	0.0043719847	0.9998964089	-0.0137133969	
#timeindex 13
6.5320133226	5.9808197941	98.9340915084	-0.0220630937	0.0126722241	0.9996762649	1591.8028006538	-2.9105780905	35.1683630800	3.5789836938	1698.2009612076	-21.4479631792	0.0000000000	0.0000000000	0.0106666667	0.0100000000	1280	720	0.0000000000	0.0000000000	16.9834016878	43.7964158396	0.9997543593	-0.0018280299	0.0220879900	0.0021073421	0.9999180332	-0.0126287793	
#timeindex 14
6.5131294348	6.0037301148	99.0083580685	-0.0207330479	0.0098145212	0.9997368733	1591.8511988412	-0.8901787667	33.0213525678	1.2949688549	1698.2581052031	-16.6451212865	0.0000000000	0.0000000000	0.0106666667	0.0100000000	1280	720	0.0000000000	0.0000000000	16.9834016878	43.7964158396	0.9997847565	-0.0005590894	0.0207395295	0.0007624909	0.9999516801	-0.0098008171	
#timeindex 15
6.4974636913	6.0273330141	99.0889012872	-0.0183762573	0.0051869599	0.9998176877	1591.9232250761	2.5653015199	29.2456165490	-2.5740138598	1698.3151177095	-8.8580080819	0.0000000000	0.0000000000	0.0106666667	0.0100000000	1280	720	0.0000000000	0.0000000000	16.9834016878	43.7964158396	0.9998299936	0.0016111741	0.0183681249	-0.0015156056	0.9999852497	-0.0052156854	
#timeindex 16
6.4814476348	6.0525366886	99.1784429282	-0.0150953371	0.0013982530	0.9998850812	1592.0091142647	3.3133870352	24.0300428699	-3.4980332654	1698.3348310978	-2.4277846904	0.0000000000	0.0000000000	0.0106666667	0.0100000000	1280	720	-0.0000000000	0.0000000000	16.9834016878	43.7964158396	0.9998839375	0.0020810198	0.0150924098	-0.0020596776	0.9999968571	-0.0014295044	
#timeindex 17
6.4683140918	6.0790410946	99.2912023137	-0.0127445116	-0.0010636631	0.9999182197	1592.0634393481	1.9000348401	20.2937516134	-2.0495628477	1698.3379987689	1.7804844238	0.0000000000	0.0000000000	0.0106666667	0.0100000000	1280	720	-0.0000000000	-0.0000000000	16.9834016878	43.7964158396	0.9999180572	0.0011933439	0.0127457790	-0.0012068035	0.9999987223	0.0010483674	
#timeindex 18
6.4512671930	6.1049576848	99.4009691945	-0.0103831547	-0.0041057753	0.9999376644	1592.1079686460	-0.6600989865	16.5294234376	0.6316711896	1698.3257079718	6.9799375904	0.0000000000	0.0000000000	0.0106666667	0.0100000000	1280	720	0.0000000000	-0.0000000000	16.9834016878	43.7964158396	0.9999460244	-0.0004145845	0.0103815392	0.0003719344	0.9999914853	0.0041098584	
#timeindex 19
6.4328532241	6.1276655499	99.5138523574	-0.0071701578	-0.0063651963	0.9999540355	1592.1520282328	-1.8130529199	11.4049651119	1.8563997248	1698.3046625768	10.8238507565	0.0000000000	0.0000000000	0.0106666667	0.0100000000	1280	720	-0.0000000000	0.0000000000	16.9834016878	43.7964158396	0.9999736967	-0.0011387136	0.0071630503	0.0010930671	0.9999790936	0.0063731936	
#timeindex 20
6.4145925648	6.1540744234	99.6355519667	-0.0051621666	-0.0089033866	0.9999470395	1592.1524224869	-8.1072813402	8.1472052966	8.5699352060	1698.2508357174	15.1652263654	0.0000000000	0.0000000000	0.0106666667	0.0100000000	1280	720	0.0000000000	-0.0000000000	16.9834016878	43.7964158396	0.9999739443	-0.0050918932	0.0051169680	0.0050460652	0.9999473998	0.0089294398	
#timeindex 21
6.4049268589	6.1824285290	99.7827977945	-0.0052437449	-0.0122534363	0.9999111743	1591.9753413730	-25.1256877035	8.0407508129	26.6932576724	1698.0011697687	20.9481825988	0.0000000000	0.0000000000	0.0106666667	0.0100000000	1280	720	0.0000000000	-0.0000000000	16.9834016878	43.7964158396	0.9998627260	-0.0157805451	0.0050501078	0.0157172622	0.9998003939	0.0123345034	
#timeindex 22
6.3929152578	6.2045650109	99.9074744760	-0.0055043192	-0.0166645437	0.9998459859	1591.7187061169	-38.0384865770	8.1286857593	40.4236450919	1697.6195219479	28.5169513434	0.0000000000	0.0000000000	0.0106666667	0.0100000000	1280	720	0.0000000000	-0.0000000000	16.9834016878	43.7964158396	0.9997015426	-0.0238906118	0.0051053366	0.0238018542	0.9995756758	0.0167910716	
#timeindex 23
6.3776058577	6.2170992244	100.0299189001	-0.0046952241	-0.0221550082	0.9997435223	1591.5989271180	-43.0322024388	6.5212074070	45.7351341194	1697.3027585073	37.8281953795	0.0000000000	0.0000000000	0.0106666667	0.0100000000	1280	720	0.0000000000	-0.0000000000	16.9834016878	43.7964158396	0.9996263137	-0.0270269860	0.0040957369	0.0269293131	0.9993891623	0.0222736270	
#timeindex 24
6.3583867853	6.2235147117	100.1525691437	-0.0024712241	-0.0254586344	0.9996728220	1591.6364127943	-42.0329352353	2.8641261758	44.7426839907	1697.1975917132	43.3330798272	0.0000000000	0.0000000000	0.0106666667	0.0100000000	1280	720	-0.0000000000	0.0000000000	16.9834016878	43.7964158396	0.9996498571	-0.0263993820	0.0017988551	0.0263449483	0.9993272390	0.0255149590	
#timeindex 25
6.3404156508	6.2315839022	100.3011663142	-0.0016143524	-0.0249497386	0.9996874033	1591.5812257177	-44.1416676168	1.4685090052	47.0306455078	1697.1584783456	42.4328488064	0.0000000000	0.0000000000	0.0106666667	0.0100000000	1280	720	0.0000000000	0.0000000000	16.9834016878	43.7964158396	0.9996151960	-0.0277238013	0.0009223179	0.0276921234	0.9993042086	0.0249848938	
#timeindex 26
6.3276300546	6.2346040014	100.4453214762	-0.0033481861	-0.0211250245	0.9997712353	1591.4696032856	-47.8255962752	4.3192076508	50.9049729079	1697.1946589661	36.0319608874	0.0000000000	0.0000000000	0.0106666667	0.0100000000	1280	720	0.0000000000	0.0000000000	16.9834016878	43.7964158396	0.9995450900	-0.0300375451	0.0027127397	0.0299733668	0.9993255121	0.0212159858	
#timeindex 27
6.3203661926	6.2442106096	100.5984654454	-0.0055652168	-0.0166172370	0.9998464361	1591.4336652072	-48.5335485742	8.0514162710	51.6184568339	1697.3163587647	28.4963520298	0.0000000000	0.0000000000	0.0106666667	0.0100000000	1280	720	-0.0000000000	-0.0000000000	16.9834016878	43.7964158396	0.9995225186	-0.0304821846	0.0050568064	0.0303934735	0.9993971702	0.0167789425	
#timeindex 28
6.3043819494	6.2465951361	100.7393902451	-0.0066655270	-0.0139162009	0.9998809480	1591.5052745547	-45.7487323962	9.9727601210	48.6448031825	1697.4744280744	23.9494895960	0.0000000000	0.0000000000	0.0106666667	0.0100000000	1280	720	-0.0000000000	-0.0000000000	16.9834016878	43.7964158396	0.9995674938	-0.0287331412	0.0062635336	0.0286425559	0.9994902430	0.0141017036	
#timeindex 29
6.2860327612	6.2594990332	100.8756324305	-0.0079330489	-0.0136224033	0.9998757407	1591.5386301013	-44.0633814337	12.0269991210	46.8203408181	1697.5320292489	23.4988139038	0.0000000000	0.0000000000	0.0106666667	0.0100000000	1280	720	0.0000000000	-0.0000000000	16.9834016878	43.7964158396	0.9995884433	-0.0276746326	0.0075537276	0.0275682938	0.9995241592	0.0138363411	
#timeindex 30
6.2630842853	6.2668190471	101.0095831953	-0.0086158814	-0.0129888480	0.9998785208	1591.5999905605	-41.4402528015	13.1763762613	44.0150109073	1697.6215151076	22.4321009661	0.0000000000	0.0000000000	0.0106666667	0.0100000000	1280	720	0.0000000000	-0.0000000000	16.9834016878	43.7964158396	0.9996269816	-0.0260271394	0.0082756103	0.0259164870	0.9995768494	0.0132082497	
#timeindex 31
6.2513867889	6.2834591743	101.1740226371	-0.0077707483	-0.0100731559	0.9999190702	1591.7634721695	-35.0152955817	12.0174513981	37.2175020167	1697.8432380866	17.3932550776	0.0000000000	0.0000000000	0.0106666667	0.0100000000	1280	720	0.0000000000	-0.0000000000	16.9834016878	43.7964158396	0.9997296585	-0.0219918538	0.0075477310	0.0219140445	0.9997074021	0.0102413259	
#timeindex 32
6.2307779756	6.3016930780	101.3297303897	-0.0052063513	-0.0072587759	0.9999601012	1591.8676239151	-31.2076866423	8.0616140608	33.2244523141	1697.9691541075	12.4986544500	0.0000000000	0.0000000000	0.0106666667	0.0100000000	1280	720	0.0000000000	0.0000000000	16.9834016878	43.7964158396	0.9997950725	-0.0196004309	0.0050632112	0.0195628961	0.9997815428	0.0073593351	
#timeindex 33
6.2191976212	6.3228964218	101.5004802148	-0.0022740547	-0.0068422162	0.9999740060	1591.8759717204	-31.6345889205	3.4036508179	33.7178433039	1697.9651548272	11.6948249579	0.0000000000	0.0000000000	0.0106666667	0.0100000000	1280	720	0.0000000000	0.0000000000	16.9834016878	43.7964158396	0.9998003155	-0.0198685529	0.0021377112	0.0198534098	0.9997791880	0.0068860321	
#timeindex 34
6.1937321914	6.3407369692	101.6454084364	0.0009987483	-0.0082235319	0.9999656874	1591.9112117344	-29.9460107466	-1.8362435895	31.9574225382	1697.9823179842	13.9319723250	0.0000000000	0.0000000000	0.0106666667	0.0100000000	1280	720	0.0000000000	0.0000000000	16.9834016878	43.7964158396	0.9998224485	-0.0188080174	-0.0011532789	0.0188168561	0.9997892938	0.0082032873	
#timeindex 35
6.1684135382	6.3552593339	101.7999995121	0.0061627093	-0.0102739322	0.9999282311	1591.9617957473	-25.2518931371	-10.0709567455	27.0437857738	1698.0369138870	17.2800932614	0.0000000000	0.0000000000	0.0106666667	0.0100000000	1280	720	0.0000000000	0.0000000000	16.9834016878	43.7964158396	0.9998542185	-0.0158598102	-0.0063252074	0.0159236567	0.9998214404	0.0101746950	
#timeindex 36
6.1392424854	6.3657803228	101.9509877219	0.0119732847	-0.0125970813	0.9998489656	1591.8893442908	-24.3834190545	-19.3702298477	26.2653276583	1698.0062288089	21.0786238718	0.0000000000	0.0000000000	0.0106666667	0.0100000000	1280	720	0.0000000000	0.0000000000	16.9834016878	43.7964158396	0.9998087143	-0.0153143527	-0.0121657480	0.0154652926	0.9998033727	0.0124113086	
#timeindex 37
6.1001076240	6.3674001976	102.0999864146	0.0183724272	-0.0140276440	0.9997328039	1591.8306291480	-16.9396858122	-29.4912961196	18.5054431962	1698.0769331749	23.4863042303	0.0000000000	0.0000000000	0.0106666667	0.0100000000	1280	720	0.0000000000	0.0000000000	16.9834016878	43.7964158396	0.9997718374	-0.0106392103	-0.0185224274	0.0108961936	0.9998450042	0.0138289753	
#timeindex 38
6.0675812687	6.3642232590	102.2756709932	0.0235160041	-0.0143630825	0.9996202776	1591.7260163343	-8.8351523101	-37.5722025451	9.9962133876	1698.1388270967	24.1646129645	0.0000000000	0.0000000000	0.0106666667	0.0100000000	1280	720	0.0000000000	-0.0000000000	16.9834016878	43.7964158396	0.9997061339	-0.0055490429	-0.0235977555	0.0058858723	0.9998814480	0.0142283704	
#timeindex 39
6.0372931969	6.3598805832	102.4480655555	0.0280877774	-0.0148473446	0.9994951891	1591.5510843884	-6.1642975645	-44.8172802994	7.2817102570	1698.1402345791	25.0209770897	0.0000000000	0.0000000000	0.0106666667	0.0100000000	1280	720	0.0000000000	0.0000000000	16.9834016878	43.7964158396	0.9995962654	-0.0038715746	-0.0281481295	0.0042875452	0.9998822767	0.0147326063	
#timeindex 40
6.0056857105	6.3540036498	102.6143553611	0.0322949043	-0.0165508856	0.9993413368	1591.3492573431	-5.8586996334	-51.5233751602	7.1547714260	1698.0960389845	27.8923022723	0.0000000000	0.0000000000	0.0106666667	0.0100000000	1280	720	0.0000000000	0.0000000000	16.9834016878	43.7964158396	0.9994695050	-0.0036796395	-0.0323599876	0.0042128023	0.9998562539	0.0164232718	
#timeindex 41
5.9727428201	6.3432403929	102.7765068452	0.0369126694	-0.0172945191	0.9991688318	1591.1058926956	-2.0368190666	-58.8160776771	3.2558100309	1698.0847728175	29.2717085479	0.0000000000	0.0000000000	0.0106666667	0.0100000000	1280	720	-0.0000000000	0.0000000000	16.9834016878	43.7964158396	0.9993166564	-0.0012792531	-0.0369402730	0.0019170541	0.9998496203	0.0172354803	
#timeindex 42
5.9441318588	6.3260758236	102.9395333664	0.0418472793	-0.0175349604	0.9989701349	1590.7875359866	7.2594178806	-66.5113343531	-6.4913792458	1698.0613949618	30.0780622851	0.0000000000	0.0000000000	0.0106666667	0.0100000000	1280	720	0.0000000000	0.0000000000	16.9834016878	43.7964158396	0.9991167079	0.0045593805	-0.0417733883	-0.0038221903	0.9998358551	0.0177102696	
#timeindex 43
5.9159859026	6.3119955654	103.0936126618	0.0452976388	-0.0186450127	0.9987995231	1590.4946641338	15.7281357636	-71.8386421312	-15.3278102456	1697.9620618220	32.3917233446	0.0000000000	0.0000000000	0.0106666667	0.0100000000	1280	720	0.0000000000	0.0000000000	16.9834016878	43.7964158396	0.9989327656	0.0098782791	-0.0451192796	-0.0090251709	0.9997773668	0.0190725768	
#timeindex 44
5.8972793062	6.3020031840	103.2519209702	0.0468048607	-0.0182475662	0.9987373686	1590.2501460261	26.5306215817	-74.0408034680	-26.8224626406	1697.8215633928	32.2772872351	0.0000000000	0.0000000000	0.0106666667	0.0100000000	1280	720	0.0000000000	0.0000000000	16.9834016878	43.7964158396	0.9987791925	0.0166629337	-0.0465023783	-0.0157933394	0.9996946399	0.0190051957	
#timeindex 45
5.8855556595	6.2966667547	103.4346614840	0.0477702265	-0.0132130136	0.9987709556	1590.0053856403	35.3826751155	-75.5802972489	-36.6299143942	1697.7724654239	24.2122678590	0.0000000000	0.0000000000	0.0106666667	0.0100000000	1280	720	0.0000000000	0.0000000000	16.9834016878	43.7964158396	0.9986254673	0.0222225917	-0.0474692792	-0.0215680669	0.9996657305	0.0142564301	
#timeindex 46
5.8803503258	6.2968090056	103.6158109560	0.0488588719	-0.0072169889	0.9987796182	1589.8848647812	36.6018194992	-77.5104182979	-38.3976101100	1697.8471144672	14.1466719883	0.0000000000	0.0000000000	0.0106666667	0.0100000000	1280	720	0.0000000000	-0.0000000000	16.9834016878	43.7964158396	0.9985497725	0.0229882926	-0.0486815192	-0.0226089042	0.9997096846	0.0083297046	
#timeindex 47
5.8812596330	6.3110267565	103.8259952431	0.0500774559	-0.0029202304	0.9987410679	1589.8279004323	34.5006806165	-79.6140153487	-36.5064056869	1697.9341678577	6.7950614626	0.0000000000	0.0000000000	0.0106666667	0.0100000000	1280	720	0.0000000000	-0.0000000000	16.9834016878	43.7964158396	0.9985139952	0.0216686425	-0.0500027132	-0.0214953437	0.9997609425	0.0040010014	
#timeindex 48
5.8750962373	6.3287678703	104.0137800374	0.0524093011	0.0008161915	0.9986253547	1589.6400920784	34.0759784818	-83.4544590978	-36.3704009792	1697.9506033379	0.5210106381	0.0000000000	0.0000000000	0.0106666667	0.0100000000	1280	720	-0.0000000000	0.0000000000	16.9834016878	43.7964158396	0.9983960395	0.0214019023	-0.0524147584	-0.0214152628	0.9997706199	0.0003067764	
#timeindex 49
5.8679553394	6.3468921132	104.1876012419	0.0567002101	0.0016692615	0.9983898536	1589.2608862163	34.2731417994	-90.3140558823	-36.6599624568	1697.9442874087	-0.7569042509	0.0000000000	0.0000000000	0.0106666667	0.0100000000	1280	720	-0.0000000000	0.0000000000	16.9834016878	43.7964158396	0.9981578739	0.0215257335	-0.0567230256	-0.0215857595	0.9997669010	-0.0004456729	
#timeindex 50
5.8551368611	6.3667919557	104.3458216255	0.0612901239	-0.0011992618	0.9981192727	1588.8014008864	35.8012589562	-97.5183049196	-37.9914416822	1697.9095548506	4.3729625067	0.0000000000	0.0000000000	0.0106666667	0.0100000000	1280	720	-0.0000000000	-0.0000000000	16.9834016878	43.7964158396	0.9978692876	0.0224854892	-0.0612477566	-0.0223697481	0.9997464501	0.0025748449	
#timeindex 51
5.8432219545	6.3883457759	104.5018862700	0.0651356498	-0.0059177531	0.9978588714	1588.3681253424	38.2796715483	-103.4543693531	-40.0911919295	1697.8195120770	12.6858044850	0.0000000000	0.0000000000	0.0106666667	0.0100000000	1280	720	-0.0000000000	-0.0000000000	16.9834016878	43.7964158396	0.9975971627	0.0240420915	-0.0649759862	-0.0236061024	0.9996934320	0.0074695310	
#timeindex 52
5.8291668597	6.4064942222	104.6520022407	0.0679035077	-0.0106870238	0.9976346531	1588.1467512277	35.6209492523	-107.7148361891	-36.6779118273	1697.8180784270	20.6841061071	0.0000000000	0.0000000000	0.0106666667	0.0100000000	1280	720	-0.0000000000	0.0000000000	16.9834016878	43.7964158396	0.9974581256	0.0223722431	-0.0676518329	-0.0215963283	0.9996925879	0.0121790125	
#timeindex 53
5.8235656649	6.4259730336	104.8259121545	0.0699290677	-0.0142402315	0.9974503202	1588.0400209097	30.1798443190	-110.9031576725	-30.4251826534	1697.8628072494	26.3728063478	0.0000000000	0.0000000000	0.0106666667	0.0100000000	1280	720	-0.0000000000	0.0000000000	16.9834016878	43.7964158396	0.9973910921	0.0189548799	-0.0696543035	-0.0179146576	0.9997189247	0.0155285772	
#timeindex 54
5.8178992417	6.4370839645	104.9979676005	0.0719543197	-0.0160537549	0.9972787237	1587.8280254637	29.4509623420	-114.0887538930	-29.3752162589	1697.8307044626	29.4503743416	0.0000000000	0.0000000000	0.0106666667	0.0100000000	1280	720	-0.0000000000	0.0000000000	16.9834016878	43.7964158396	0.9972579453	0.0184970952	-0.0716550624	-0.0172964267	0.9997000222	0.0173406806	
#timeindex 55
5.8236303762	6.4453641175	105.1962235817	0.0708515334	-0.0157162589	0.9973630530	1587.9850704909	27.5077230926	-112.3751861580	-27.3803404477	1697.8768983791	28.6998920341	0.0000000000	0.0000000000	0.0106666667	0.0100000000	1280	720	-0.0000000000	-0.0000000000	16.9834016878	43.7964158396	0.9973565797	0.0172766162	-0.0705788319	-0.0161218235	0.9997272217	0.0168987889	
#timeindex 56
5.8315558282	6.4447110526	105.3982456584	0.0682022201	-0.0115198069	0.9976050076	1588.3388713124	22.9599836179	-108.3231758490	-23.1009414042	1698.0508724273	21.1874974960	0.0000000000	0.0000000000	0.0106666667	0.0100000000	1280	720	0.0000000000	0.0000000000	16.9834016878	43.7964158396	0.9975787893	0.0144203438	-0.0680339092	-0.0136020697	0.9998296594	0.0124754145	
#timeindex 57
5.8428978518	6.4413467599	105.6175190087	0.0667903092	-0.0049349609	0.9977548300	1588.5514996010	17.1977094043	-106.2535331289	-17.7437232934	1698.2204135919	9.5872852532	0.0000000000	0.0000000000	0.0106666667	0.0100000000	1280	720	0.0000000000	0.0000000000	16.9834016878	43.7964158396	0.9977123335	0.0108012657	-0.0667340407	-0.0104476851	0.9999294869	0.0056450913	
#timeindex 58
5.8524876708	6.4278476639	105.8265962902	0.0668395952	-0.0000627909	0.9977637318	1588.5578060261	15.5327750932	-106.4155590471	-16.5241148934	1698.2593468536	1.2138148242	0.0000000000	0.0000000000	0.0106666667	0.0100000000	1280	720	0.0000000000	0.0000000000	16.9834016878	43.7964158396	0.9977162944	0.0097555800	-0.0668358034	-0.0097295673	0.9999524112	0.0007147065	
#timeindex 59
5.8568756916	6.4073774160	106.0195350987	0.0674487617	0.0009495405	0.9977222875	1588.4609322000	18.3890870714	-107.4018144479	-19.6791300168	1698.2261271766	-0.2858526370	0.0000000000	0.0000000000	0.0106666667	0.0100000000	1280	720	-0.0000000000	0.0000000000	16.9834016878	43.7964158396	0.9976554514	0.0115495273	-0.0674552351	-0.0115872723	0.9999328511	-0.0001683129	
#timeindex 60
5.8542595390	6.3827166560	106.1814333601	0.0677571333	-0.0010052173	0.9977013383	1588.4333099944	18.1063320070	-107.8574143821	-19.1533776392	1698.2294915991	3.0117907033	0.0000000000	0.0000000000	0.0106666667	0.0100000000	1280	720	0.0000000000	-0.0000000000	16.9834016878	43.7964158396	0.9976381029	0.0113719390	-0.0677413811	-0.0112777040	0.9999348321	0.0017733731	
#timeindex 61
5.8490875116	6.3663883749	106.3454460605	0.0680971361	-0.0045345927	0.9976683906	1588.4444181536	13.5629908796	-108.3596655168	-13.9093336871	1698.2610869864	8.6683192868	0.0000000000	0.0000000000	0.0106666667	0.0100000000	1280	720	0.0000000000	-0.0000000000	16.9834016878	43.7964158396	0.9976450795	0.0085184291	-0.0680568271	-0.0081899574	0.9999534358	0.0051039947	
#timeindex 62
5.8574349074	6.3586171934	106.5378968996	0.0679429398	-0.0055181518	0.9976739482	1588.5143119452	1.6824809452	-108.1706586780	-1.1537763157	1698.3133631345	9.4719741433	0.0000000000	0.0000000000	0.0106666667	0.0100000000	1280	720	0.0000000000	-0.0000000000	16.9834016878	43.7964158396	0.9976889773	0.0010567061	-0.0679381187	-0.0006793553	0.9999842166	0.0055771949	
#timeindex 63
5.8660343436	6.3508433072	106.7302615595	0.0667533091	-0.0025888217	0.9977661518	1588.6205075359	-8.1089557899	-106.3041357062	8.9237803371	1698.3124515710	3.8094459679	0.0000000000	0.0000000000	0.0106666667	0.0100000000	1280	720	-0.0000000000	-0.0000000000	16.9834016878	43.7964158396	0.9977556749	-0.0050929449	-0.0667658224	0.0052544128	0.9999836798	0.0022430406	
#timeindex 64
5.8691263672	6.3461413140	106.9204276857	0.0656229215	0.0014710572	0.9978434086	1588.7260135193	-10.8589581893	-104.4661590655	11.3939884350	1698.2988323034	-3.2530169720	0.0000000000	0.0000000000	0.0106666667	0.0100000000	1280	720	0.0000000000	0.0000000000	16.9834016878	43.7964158396	0.9978219395	-0.0068201229	-0.0656114551	0.0067088965	0.9999756607	-0.0019154095	
#timeindex 65
5.8732488390	6.3459223977	107.1124084444	0.0644989833	0.0057219830	0.9979013679	1588.8474164508	-10.5637627641	-102.6339882775	10.6179449303	1698.2749847113	-10.4242239248	0.0000000000	0.0000000000	0.0106666667	0.0100000000	1280	720	0.0000000000	0.0000000000	16.9834016878	43.7964158396	0.9978981883	-0.0066347213	-0.0644607342	0.0062519542	0.9999616190	-0.0061378893	
#timeindex 66
5.8706900237	6.3485109969	107.2838324822	0.0624856779	0.0069383484	0.9980217429	1589.0419951979	-12.0650055814	-99.4053043543	12.1081912136	1698.2505274504	-12.5644982043	0.0000000000	0.0000000000	0.0106666667	0.0100000000	1280	720	0.0000000000	0.0000000000	16.9834016878	43.7964158396	0.9980203963	-0.0075775981	-0.0624329134	0.0071294264	0.9999472183	-0.0073981046	
#timeindex 67
5.8686877819	6.3580402439	107.4627975118	0.0612302816	0.0051256602	0.9981105050	1589.1540117403	-13.4310883625	-97.4195782727	13.7667954525	1698.2574308503	-9.5657095877	0.0000000000	0.0000000000	0.0106666667	0.0100000000	1280	720	0.0000000000	-0.0000000000	16.9834016878	43.7964158396	0.9980907498	-0.0084355858	-0.0611857499	0.0081060295	0.9999512831	-0.0056323873	
#timeindex 68
5.8637410560	6.3733473188	107.6322407520	0.0603714155	0.0032432274	0.9981707137	1589.1888627687	-18.2493547772	-96.0581120890	19.0980620627	1698.2196752413	-6.6728962145	0.0000000000	0.0000000000	0.0106666667	0.0100000000	1280	720	0.0000000000	-0.0000000000	16.9834016878	43.7964158396	0.9981126385	-0.0114617665	-0.0603306617	0.0112451336	0.9999290522	-0.0039290693	
#timeindex 69
5.8565871573	6.3927756121	107.8054296331	0.0612729763	0.0015776984	0.9981197990	1589.0380615583	-23.0407051363	-97.5120824400	24.3664419476	1698.1602199432	-4.1800483819	0.0000000000	0.0000000000	0.0106666667	0.0100000000	1280	720	0.0000000000	-0.0000000000	16.9834016878	43.7964158396	0.9980179257	-0.0144710421	-0.0612438485	0.0143472093	0.9998940443	-0.0024612551	
#timeindex 70
5.8505989190	6.4130675457	107.9999937409	0.0644128853	-0.0002278990	0.9979233078	1588.7106275380	-23.7299222008	-102.5518119590	25.2842815060	1698.1514908701	-1.2442103446	0.0000000000	0.0000000000	0.0106666667	0.0100000000	1280	720	0.0000000000	-0.0000000000	16.9834016878	43.7964158396	0.9978122761	-0.0149039147	-0.0644091222	0.0148876426	0.9998889045	-0.0007326037	
#timeindex 71
5.8350926856	6.4249955274	108.1773991011	0.0670616279	-0.0031175750	0.9977439645	1588.4620880290	-21.3648765000	-106.8324779384	23.0930504967	1698.1790092060	3.7540120014	0.0000000000	0.0000000000	0.0106666667	0.0100000000	1280	720	0.0000000000	-0.0000000000	16.9834016878	43.7964158396	0.9976561773	-0.0134185142	-0.0670976552	0.0135974235	0.9999051076	0.0022104005	
#timeindex 72
5.8146205969	6.4326021036	108.3570501841	0.0707705640	-0.0053767556	0.9974781290	1588.1128922526	-16.2273771479	-112.7632701187	17.9122713013	1698.2274096897	7.8831726164	0.0000000000	0.0000000000	0.0106666667	0.0100000000	1280	720	0.0000000000	-0.0000000000	16.9834016878	43.7964158396	0.9974368599	-0.0101918347	-0.0708225735	0.0105469279	0.9999336063	0.0046416924	
#timeindex 73
5.7935696572	6.4389902160	108.5412343812	0.0751055735	-0.0064773413	0.9971545501	1587.6203012571	-14.8624109033	-119.6759339815	16.6349893585	1698.2305460965	9.7784624965	0.0000000000	0.0000000000	0.0106666667	0.0100000000	1280	720	0.0000000000	-0.0000000000	16.9834016878	43.7964158396	0.9971274812	-0.0093345483	-0.0751641702	0.0097948513	0.9999354530	0.0057576584	
#timeindex 74
5.7812645172	6.4380519317	108.7376003988	0.0789116303	-0.0086708916	0.9968439046	1587.1309004824	-16.5934698108	-125.7839532272	18.8072088184	1698.1840862401	13.2825837990	0.0000000000	0.0000000000	0.0106666667	0.0100000000	1280	720	0.0000000000	-0.0000000000	16.9834016878	43.7964158396	0.9968201061	-0.0104217644	-0.0790003985	0.0110738762	0.9999080970	0.0078209207	
#timeindex 75
5.7623003219	6.4304868872	108.9256356199	0.0827578823	-0.0116889490	0.9965011296	1586.6541382840	-14.2445757076	-131.9362684220	16.7860608986	1698.1561678276	18.5252995525	0.0000000000	0.0000000000	0.0106666667	0.0100000000	1280	720	-0.0000000000	0.0000000000	16.9834016878	43.7964158396	0.9965206688	-0.0089465081	-0.0828644474	0.0098838037	0.9998916584	0.0109078852	
#timeindex 76
5.7402471026	6.4198066371	109.1143869360	0.0847020493	-0.0139080757	0.9963092533	1586.4183703357	-11.2176725724	-135.0272545795	13.9245229508	1698.1337463464	22.5214581022	0.0000000000	0.0000000000	0.0106666667	0.0100000000	1280	720	-0.0000000000	-0.0000000000	16.9834016878	43.7964158396	0.9963725914	-0.0070454186	-0.0848057852	0.0081989010	0.9998784564	0.0132608641	
#timeindex 77
5.7117399077	6.4023399582	109.2876895181	0.0859350890	-0.0149540919	0.9961885041	1586.2965374142	-2.8183925108	-136.8824073698	5.1782424767	1698.1476015580	25.0447204583	0.0000000000	0.0000000000	0.0106666667	0.0100000000	1280	720	0.0000000000	-0.0000000000	16.9834016878	43.7964158396	0.9962960725	-0.0017701314	-0.0859709403	0.0030490019	0.9998866145	0.0147465866	
#timeindex 78
5.6916918362	6.3866309316	109.4702167763	0.0873603508	-0.0158232947	0.9960510993	1586.0983556499	7.3405584465	-138.9948337250	-5.4530294288	1698.1094914235	27.4544805564	0.0000000000	0.0000000000	0.0106666667	0.0100000000	1280	720	0.0000000000	-0.0000000000	16.9834016878	43.7964158396	0.9961716016	0.0046103420	-0.0872976796	-0.0032107993	0.9998641748	0.0161654780	
#timeindex 79
5.6725107427	6.3734754797	109.6545893169	0.0891542171	-0.0150308435	0.9959044127	1585.7995491601	15.2773056734	-141.7315603911	-13.9566839745	1698.0701173763	26.8778038777	0.0000000000	0.0000000000	0.0106666667	0.0100000000	1280	720	0.0000000000	-0.0000000000	16.9834016878	43.7964158396	0.9959839320	0.0095951288	-0.0890165197	-0.0082178378	0.9998409910	0.0158259248	
#timeindex 80
5.6722246370	6.3700873283	109.8708942050	0.0892133204	-0.0108314315	0.9959536453	1585.7820176401	15.7453578701	-141.8764167526	-15.0879166645	1698.1574904791	19.8197173393	0.0000000000	0.0000000000	0.0106666667	0.0100000000	1280	720	0.0000000000	0.0000000000	16.9834016878	43.7964158396	0.9959729210	0.0098890957	-0.0891074988	-0.0088839191	0.9998924372	0.0116700516	
#timeindex 81
5.6798085531	6.3680648007	110.0973571430	0.0872396172	-0.0038822631	0.9961797916	1586.0258084223	18.2068933446	-138.8239368730	-18.7716140482	1698.2163268775	8.2621140073	0.0000000000	0.0000000000	0.0106666667	0.0100000000	1280	720	0.0000000000	0.0000000000	16.9834016878	43.7964158396	0.9961260373	0.0114350980	-0.0871903454	-0.0110529177	0.9999270806	0.0048648169	
#timeindex 82
5.6876752502	6.3704346247	110.3201891935	0.0844498915	0.0034066126	0.9964219040	1586.3511090311	21.7996028014	-134.5227772144	-23.6585266315	1698.1711215513	-3.8006502085	0.0000000000	0.0000000000	0.0106666667	0.0100000000	1280	720	0.0000000000	0.0000000000	16.9834016878	43.7964158396	0.9963303470	0.0136915502	-0.0844889410	-0.0139303816	0.9999004633	-0.0022378616	
#timeindex 83
5.6934825811	6.3802104919	110.5452030982	0.0837734490	0.0098406822	0.9964362349	1586.4407137244	21.0342628352	-133.5846661129	-23.7587902971	1698.1097172170	-14.7728491491	0.0000000000	0.0000000000	0.0106666667	0.0100000000	1280	720	0.0000000000	0.0000000000	16.9834016878	43.7964158396	0.9963866245	0.0132108675	-0.0838997470	-0.0139894179	0.9998643078	-0.0086984041	
#timeindex 84
5.6989847480	6.3986552768	110.7542065779	0.0846554318	0.0121702565	0.9963359588	1586.3496284183	18.6372462718	-135.0146320381	-21.5595960885	1698.0980266057	-18.9104402221	0.0000000000	0.0000000000	0.0106666667	0.0100000000	1280	720	0.0000000000	0.0000000000	16.9834016878	43.7964158396	0.9963294171	0.0117053872	-0.0847978574	-0.0126945099	0.9998574242	-0.0111346599	
#timeindex 85
5.6842161647	6.4164526471	110.9152043080	0.0858659062	0.0091466527	0.9962647163	1586.1673166044	20.3563600968	-136.8952290451	-22.9679535315	1698.1303088475	-13.6108845853	0.0000000000	0.0000000000	0.0106666667	0.0100000000	1280	720	0.0000000000	0.0000000000	16.9834016878	43.7964158396	0.9962149135	0.0127851011	-0.0859789931	-0.0135237651	0.9998764323	-0.0080142276	
#timeindex 86
5.6759432131	6.4393777550	111.0914647816	0.0883120513	0.0032927642	0.9960874155	1585.7926364169	23.5456294733	-140.6725240217	-25.5111537658	1698.1452457342	-3.3517635638	0.0000000000	0.0000000000	0.0106666667	0.0100000000	1280	720	0.0000000000	0.0000000000	16.9834016878	43.7964158396	0.9959795903	0.0147881670	-0.0883513769	-0.0150212273	0.9998852273	-0.0019735525	
#timeindex 87
5.6663285311	6.4620998485	111.2614750803	0.0910723446	-0.0007525890	0.9958439946	1585.4433017117	20.8008244070	-144.9769090488	-21.9789525780	1698.1947497337	3.2934048442	0.0000000000	0.0000000000	0.0106666667	0.0100000000	1280	720	0.0000000000	0.0000000000	16.9834016878	43.7964158396	0.9957601857	0.0130642532	-0.0910548070	-0.0129414313	0.9999143758	0.0019391903	
#timeindex 88
5.6612679289	6.4862641087	111.4463226951	0.0929414028	-0.0037255877	0.9956646100	1585.2156856923	17.1897881999	-147.9093722949	-17.6684953837	1698.2293995115	8.0037366747	0.0000000000	0.0000000000	0.0106666667	0.0100000000	1280	720	0.0000000000	-0.0000000000	16.9834016878	43.7964158396	0.9956172282	0.0107962906	-0.0928965822	-0.0104033902	0.9999347779	0.0047126817	
#timeindex 89
5.6581573533	6.5018184063	111.6388390618	0.0933615294	-0.0070248944	0.9956074908	1585.1990332225	12.4449033879	-148.5617408558	-12.1030490634	1698.2463820661	13.1175797221	0.0000000000	0.0000000000	0.0106666667	0.0100000000	1280	720	0.0000000000	-0.0000000000	16.9834016878	43.7964158396	0.9956067694	0.0078161983	-0.0933063116	-0.0071263986	0.9999447774	0.0077237646	
#timeindex 90
5.6650624844	6.5136314430	111.8402588137	0.0931410403	-0.0095723866	0.9956069084	1585.2558058500	8.7371418560	-148.2198831697	-7.7652701463	1698.2367850451	17.0543658426	0.0000000000	0.0000000000	0.0106666667	0.0100000000	1280	720	0.0000000000	-0.0000000000	16.9834016878	43.7964158396	0.9956424263	0.0054874860	-0.0930916030	-0.0045722702	0.9999391266	0.0100417844	
#timeindex 91
5.6616627397	6.5148021102	112.0289810149	0.0924602445	-0.0111071531	0.9956544252	1585.3404807416	11.9252676614	-147.0876932622	-10.9223679934	1698.1877643947	19.9586480628	0.0000000000	0.0000000000	0.0106666667	0.0100000000	1280	720	0.0000000000	-0.0000000000	16.9834016878	43.7964158396	0.9956956075	0.0074898337	-0.0923805150	-0.0064312016	0.9999102627	0.0117518554	
#timeindex 92
5.6655704420	6.5111453583	112.2159802125	0.0890642406	-0.0155104833	0.9959051089	1585.8368642274	11.9153218585	-141.6365297450	-10.3143241362	1698.0883039463	27.3688803854	0.0000000000	0.0000000000	0.0106666667	0.0100000000	1280	720	-0.0000000000	0.0000000000	16.9834016878	43.7964158396	0.9960073682	0.0074835871	-0.0889568343	-0.0060731792	0.9998516994	0.0161150757	
#timeindex 93
5.6676196578	6.4972484417	112.3990501433	0.0852623093	-0.0196384479	0.9961649813	1586.3712721888	11.5632348923	-135.5504325660	-9.4473488700	1697.9678417220	34.2824294965	0.0000000000	0.0000000000	0.0106666667	0.0100000000	1280	720	0.0000000000	0.0000000000	16.9834016878	43.7964158396	0.9963430107	0.0072624539	-0.0851343746	-0.0055626953	0.9997807700	0.0201858439	
#timeindex 94
5.6720941279	6.4811945519	112.5958030504	0.0839594091	-0.0195175273	0.9962780153	1586.5134911822	16.3069905045	-133.3809047555	-14.5525660712	1697.9275671274	34.4895419595	0.0000000000	0.0000000000	0.0106666667	0.0100000000	1280	720	0.0000000000	0.0000000000	16.9834016878	43.7964158396	0.9964323334	0.0102418370	-0.0837717718	-0.0085686992	0.9997570559	0.0203077938	
#timeindex 95
5.6762392024	6.4586732937	112.7894546260	0.0841622238	-0.0196085246	0.9962591158	1586.4678946342	18.3217570337	-133.6614151874	-16.6744686006	1697.9011668512	34.8269808825	0.0000000000	0.0000000000	0.0106666667	0.0100000000	1280	720	0.0000000000	0.0000000000	16.9834016878	43.7964158396	0.9964036958	0.0115072398	-0.0839479504	-0.0098180970	0.9997415112	0.0205064813	
#timeindex 96
5.6839901842	6.4471860005	112.9889836011	0.0843732218	-0.0217241409	0.9961973806	1586.4936096883	11.4794166310	-134.1181971539	-9.0903063103	1697.8952135845	37.7960171606	0.0000000000	0.0000000000	0.0106666667	0.0100000000	1280	720	0.0000000000	0.0000000000	16.9834016878	43.7964158396	0.9964198465	0.0072098107	-0.0842348388	-0.0053524650	0.9997380058	0.0222546801	
#timeindex 97
5.6951093491	6.4449915796	113.1942553851	0.0840385387	-0.0216024330	0.9962283167	1586.5473959452	-3.8184465773	-133.9187114669	7.1434822355	1697.9389593331	36.2158796028	0.0000000000	0.0000000000	0.0106666667	0.0100000000	1280	720	0.0000000000	0.0000000000	16.9834016878	43.7964158396	0.9964536278	-0.0023982296	-0.0841095490	0.0042061551	0.9997637638	0.0213242790	
#timeindex 98
5.7179184667	6.4414182460	113.4207019407	0.0826177115	-0.0167347799	0.9964407965	1586.6151803276	-18.5969061292	-131.8630578754	22.1199095592	1697.9864726065	26.6829035448	0.0000000000	0.0000000000	0.0106666667	0.0100000000	1280	720	0.0000000000	0.0000000000	16.9834016878	43.7964158396	0.9964962007	-0.0116800510	-0.0828184665	0.0130244282	0.9997917401	0.0157111655	
#timeindex 99
5.7263422862	6.4366549562	113.6244692020	0.0798071797	-0.0104769039	0.9967552601	1586.9058011226	-24.5336004448	-127.3166218867	27.5070712642	1698.0453174303	15.6457623243	0.0000000000	0.0000000000	0.0106666667	0.0100000000	1280	720	0.0000000000	-0.0000000000	16.9834016878	43.7964158396	0.9966787292	-0.0154086762	-0.0799630128	0.0161964439	0.9998263885	0.0092123843	
#timeindex 100
5.7332869894	6.4410577018	113.8216163909	0.0771895531	-0.0087562189	0.9969779845	1587.2224794313	-25.4877269075	-123.1122169443	28.2546134628	1698.0574351626	12.7260599633	0.0000000000	0.0000000000	0.0106666667	0.0100000000	1280	720	0.0000000000	0.0000000000	16.9834016878	43.7964158396	0.9968776235	-0.0160079289	-0.0773223766	0.0166366044	0.9998335236	0.0074932338	
#timeindex 101
5.7315438683	6.4507292028	113.9827644949	0.0760962898	-0.0109542852	0.9970402992	1587.3740757467	-24.1427473677	-121.4171025544	27.0947516113	1698.0430021544	16.5881332509	0.0000000000	0.0000000000	0.0106666667	0.0100000000	1280	720	0.0000000000	0.0000000000	16.9834016878	43.7964158396	0.9969728357	-0.0151631954	-0.0762577359	0.0159536659	0.9998250253	0.0097672619	
#timeindex 102
5.7321457803	6.4619449312	114.1640605549	0.0757391653	-0.0145319459	0.9970217658	1587.3821206975	-25.8354696927	-120.9626917340	29.3507721708	1697.9372140939	22.5183938844	0.0000000000	0.0000000000	0.0106666667	0.0100000000	1280	720	0.0000000000	0.0000000000	16.9834016878	43.7964158396	0.9969778885	-0.0162263337	-0.0759723367	0.0172820338	0.9997627362	0.0132590598	
#timeindex 103
5.7331629741	6.4826533870	114.3500091396	0.0772310967	-0.0174034353	0.9968613134	1587.1135216717	-30.0584631856	-123.4852198189	34.2540652036	1697.7802332547	26.9864314375	0.0000000000	0.0000000000	0.0106666667	0.0100000000	1280	720	0.0000000000	0.0000000000	16.9834016878	43.7964158396	0.9968091911	-0.0188786448	-0.0775566463	0.0201691427	0.9996703043	0.0158898859	
#timeindex 104
5.7343739539	6.5032821148	114.5333953287	0.0792184458	-0.0181663249	0.9966917389	1586.8457837577	-30.8587610709	-126.6871612736	35.2619865197	1697.7408465903	28.1414111323	0.0000000000	0.0000000000	0.0106666667	0.0100000000	1280	720	0.0000000000	-0.0000000000	16.9834016878	43.7964158396	0.9966410345	-0.0193812832	-0.0795676711	0.0207626170	0.9996471130	0.0165699497	
#timeindex 105
5.7315606647	6.5257301616	114.7264226501	0.0824107061	-0.0186482973	0.9964239643	1586.4804717617	-28.3706589427	-131.7431585535	32.7743893827	1697.7751547721	29.0635877736	0.0000000000	0.0000000000	0.0106666667	0.0100000000	1280	720	0.0000000000	-0.0000000000	16.9834016878	43.7964158396	0.9964115951	-0.0178185953	-0.0827431620	0.0192978945	0.9996673140	0.0171129367	
#timeindex 106
5.7096317412	6.5629734603	114.9049385851	0.0880868420	-0.0183523309	0.9959437234	1585.7367481321	-26.6795107458	-140.7430663497	31.0978715629	1697.8156517877	28.5353083745	0.0000000000	0.0000000000	0.0106666667	0.0100000000	1280	720	0.0000000000	-0.0000000000	16.9834016878	43.7964158396	0.9959444889	-0.0167564457	-0.0883956820	0.0183107437	0.9996911590	0.0168018804	
#timeindex 107
5.7130659949	6.5881211907	115.1144709071	0.0938245122	-0.0162768591	0.9954556870	1584.9188501441	-25.9151539660	-149.8068244399	30.1181567587	1697.8901707020	24.9237589899	0.0000000000	0.0000000000	0.0106666667	0.0100000000	1280	720	0.0000000000	-0.0000000000	16.9834016878	43.7964158396	0.9954307964	-0.0162763806	-0.0940883040	0.0177338776	0.9997350365	0.0146753633	
#timeindex 108
5.7230826067	6.6081439486	115.3336590132	0.0991077919	-0.0135294622	0.9949847231	1584.1198652870	-25.2861682312	-158.1338151543	29.1187376769	1697.9705160502	20.1879824535	0.0000000000	0.0000000000	0.0106666667	0.0100000000	1280	720	-0.0000000000	0.0000000000	16.9834016878	43.7964158396	0.9949289826	-0.0158813371	-0.0993181888	0.0171454095	0.9997823447	0.0118868898	
#timeindex 109
5.7275675406	6.6202831625	115.5386234990	0.1030474100	-0.0139796939	0.9945782018	1583.3671766446	-31.1919921943	-164.4897715460	35.5438849686	1697.8482391845	20.1821167042	0.0000000000	0.0000000000	0.0106666667	0.0100000000	1280	720	0.0000000000	0.0000000000	16.9834016878	43.7964158396	0.9944562459	-0.0195905738	-0.1033101375	0.0209286017	0.9997103468	0.0118834360	
#timeindex 110
5.7303506848	6.6263233813	115.7350252564	0.1082440256	-0.0158806649	0.9939975027	1582.4771617325	-31.2737104945	-172.8277437881	36.0859835958	1697.7983120996	23.1953037205	0.0000000000	0.0000000000	0.0106666667	0.0100000000	1280	720	0.0000000000	0.0000000000	16.9834016878	43.7964158396	0.9938972593	-0.0196418981	-0.1085469194	0.0212477949	0.9996809493	0.0136576312	
#timeindex 111
5.7288662723	6.6271847095	115.9275996379	0.1132686246	-0.0194607800	0.9933737951	1581.6412651337	-27.7734165031	-180.8894335160	33.1836092062	1697.7600888758	29.4763904793	0.0000000000	0.0000000000	0.0106666667	0.0100000000	1280	720	-0.0000000000	-0.0000000000	16.9834016878	43.7964158396	0.9933722626	-0.0174434887	-0.1136101781	0.0195388473	0.9996584430	0.0173559991	
#timeindex 112
5.7181856825	6.6268943109	116.1061973592	0.1196713830	-0.0278051346	0.9924241203	1580.4536132480	-25.5717758443	-191.2953267787	32.7435087441	1697.4643873586	43.6101499614	0.0000000000	0.0000000000	0.0106666667	0.0100000000	1280	720	-0.0000000000	0.0000000000	16.9834016878	43.7964158396	0.9926263410	-0.0160607170	-0.1201457472	0.0192797117	0.9994843310	0.0256781007	
#timeindex 113
5.7180999928	6.6264440351	116.3069040839	0.1287852714	-0.0370074752	0.9909817358	1578.7486438720	-16.7881567794	-205.7967897224	25.8696280967	1697.0823113457	60.0143295787	0.0000000000	0.0000000000	0.0106666667	0.0100000000	1280	720	-0.0000000000	0.0000000000	16.9834016878	43.7964158396	0.9915555107	-0.0105440403	-0.1292535970	0.0152323007	0.9992593607	0.0353370489	
#timeindex 114
5.7141057949	6.6180322483	116.4827584637	0.1372259394	-0.0413405441	0.9896767154	1577.0605291439	-5.9617070690	-218.9200467315	15.9471322759	1696.8763664164	68.6703354068	0.0000000000	0.0000000000	0.0106666667	0.0100000000	1280	720	0.0000000000	0.0000000000	16.9834016878	43.7964158396	0.9904952663	-0.0037443348	-0.1374958449	0.0093898340	0.9991380982	0.0404337933	
#timeindex 115
5.7151687184	6.6145209761	116.6748123472	0.1415401908	-0.0385413743	0.9891819534	1576.1413600024	0.1505656863	-225.5212451534	9.1124926649	1697.0783032864	64.8191629630	0.0000000000	0.0000000000	0.0106666667	0.0100000000	1280	720	-0.0000000000	0.0000000000	16.9834016878	43.7964158396	0.9899179691	0.0000945649	-0.1416418214	0.0053655286	0.9992570007	0.0381661838	
#timeindex 116
5.7446483803	6.6045546087	116.8968794046	0.1392726842	-0.0300024898	0.9897994595	1576.6763091993	5.9461872536	-221.6707023099	0.8161493829	1697.5637678827	51.3411800339	0.0000000000	0.0000000000	0.0106666667	0.0100000000	1280	720	0.0000000000	0.0000000000	16.9834016878	43.7964158396	0.9902539515	0.0037345874	-0.1392234333	0.0004805571	0.9995428472	0.0302302100	
#timeindex 117
5.7908036256	6.6093431120	117.1507375424	0.1318647321	-0.0206652962	0.9910522882	1578.2873171608	7.5359851762	-209.8423093957	-3.3409086663	1697.9584608403	35.8501392620	0.0000000000	0.0000000000	0.0106666667	0.0100000000	1280	720	0.0000000000	0.0000000000	16.9834016878	43.7964158396	0.9912657679	0.0047330825	-0.1317944431	-0.0019671611	0.9997752465	0.0211089274	
#timeindex 118
5.8033057077	6.6091829571	117.3485874178	0.1259266235	-0.0135641888	0.9919468223	1579.5139883241	6.8863846019	-200.4235010954	-4.3865014457	1698.1680386854	23.7781388596	0.0000000000	0.0000000000	0.0106666667	0.0100000000	1280	720	0.0000000000	0.0000000000	16.9834016878	43.7964158396	0.9920361962	0.0043250917	-0.1258788267	-0.0025828168	0.9998986480	0.0140008105	
#timeindex 119
5.8102594055	6.6235957267	117.5569651377	0.1226218452	-0.0119837960	0.9923811121	1580.1687921792	7.8987609787	-195.1554231727	-5.8665369902	1698.1973135276	21.2319798074	0.0000000000	0.0000000000	0.0106666667	0.0100000000	1280	720	0.0000000000	0.0000000000	16.9834016878	43.7964158396	0.9924474551	0.0049609290	-0.1225701356	-0.0034542768	0.9999158854	0.0125016061	
#timeindex 120
5.8178032392	6.6396869807	117.7466283285	0.1209751515	-0.0153623710	0.9925366544	1580.4885909460	9.0556065373	-192.4974058932	-6.4328585069	1698.1122785929	27.0672591645	0.0000000000	0.0000000000	0.0106666667	0.0100000000	1280	720	0.0000000000	-0.0000000000	16.9834016878	43.7964158396	0.9926483092	0.0056875023	-0.1209007301	-0.0037877326	0.9998658159	0.0159374781	
#timeindex 121
5.8253463224	6.6597727811	117.9368003053	0.1226263486	-0.0199950895	0.9922514676	1580.1679470652	9.4623518762	-195.0927070923	-5.8540121631	1697.9706356279	34.9396620175	0.0000000000	0.0000000000	0.0106666667	0.0100000000	1280	720	0.0000000000	0.0000000000	16.9834016878	43.7964158396	0.9924469243	0.0059429645	-0.1225307458	-0.0034469020	0.9997824151	0.0205728291	
#timeindex 122
5.8355811392	6.6808541495	118.1303242550	0.1246553095	-0.0229504561	0.9919346402	1579.7623057030	10.9638201827	-198.2732799015	-6.7465928723	1697.8525561011	40.1311614668	0.0000000000	0.0000000000	0.0106666667	0.0100000000	1280	720	0.0000000000	0.0000000000	16.9834016878	43.7964158396	0.9921921555	0.0068859830	-0.1245283498	-0.0039724626	0.9997128887	0.0236296369	
#timeindex 123
5.8441995670	6.6989947915	118.3233585759	0.1254550741	-0.0247698348	0.9917900381	1579.6096324117	8.9241399440	-199.5876006029	-4.1675959512	1697.7923997177	42.9293314643	0.0000000000	0.0000000000	0.0106666667	0.0100000000	1280	720	0.0000000000	0.0000000000	16.9834016878	43.7964158396	0.9920962668	0.0056049329	-0.1253538276	-0.0024539230	0.9996774680	0.0252772279	
#timeindex 124
5.8523548702	6.7156354127	118.5199917827	0.1252447879	-0.0256756205	0.9917935801	1579.6543094202	7.9685281431	-199.2741997484	-2.9724227487	1697.7589950046	44.3270626034	0.0000000000	0.0000000000	0.0106666667	0.0100000000	1280	720	0.0000000000	0.0000000000	16.9834016878	43.7964158396	0.9921243269	0.0050047473	-0.1251569917	-0.0017501928	0.9996577990	0.0261002262	
#timeindex 125
5.8638828694	6.7185274959	118.7081964556	0.1239289358	-0.0251955907	0.9919711695	1579.9014377307	12.6919463262	-197.0578670102	-8.1333925073	1697.7470385107	44.1380793580	0.0000000000	0.0000000000	0.0106666667	0.0100000000	1280	720	-0.0000000000	0.0000000000	16.9834016878	43.7964158396	0.9922795393	0.0079713572	-0.1237649924	-0.0047890244	0.9996507589	0.0259889510	
#timeindex 126
5.8840737163	6.7165000086	118.9125134909	0.1200657373	-0.0242187283	0.9924704892	1580.6749209006	6.4240160514	-191.0679665710	-1.8647713999	1697.8281901797	41.6567900104	0.0000000000	0.0000000000	0.0106666667	0.0100000000	1280	720	0.0000000000	0.0000000000	16.9834016878	43.7964158396	0.9927653364	0.0040346945	-0.1200029504	-0.0010979964	0.9996985418	0.0245279425	
#timeindex 127
5.9008966443	6.7137998377	119.1213120007	0.1191151485	-0.0209259685	0.9926599041	1580.8318656149	-5.1908408463	-189.8028166905	9.7328505036	1697.9592521011	34.6262721111	0.0000000000	0.0000000000	0.0106666667	0.0100000000	1280	720	-0.0000000000	0.0000000000	16.9834016878	43.7964158396	0.9928639077	-0.0032601813	-0.1192083550	0.0057308016	0.9997757124	0.0203883019	
#timeindex 128
5.9320411698	6.7008880814	119.3565949067	0.1209229661	-0.0150142040	0.9925483414	1580.4500829325	-10.9757999522	-192.7135401834	14.7066159357	1698.1083747392	23.8954385488	0.0000000000	0.0000000000	0.0106666667	0.0100000000	1280	720	0.0000000000	0.0000000000	16.9834016878	43.7964158396	0.9926241237	-0.0068935071	-0.1210364763	0.0086594053	0.9998635173	0.0140698777	
#timeindex 129
5.9535809769	6.6905066121	119.5752570178	0.1201461465	-0.0094401153	0.9927113315	1580.5513571388	-16.8819122416	-191.4519518880	19.8039403438	1698.1690202952	13.7517763023	0.0000000000	0.0000000000	0.0106666667	0.0100000000	1280	720	0.0000000000	0.0000000000	16.9834016878	43.7964158396	0.9926877304	-0.0106029248	-0.1202441178	0.0116607619	0.9998992260	0.0080971860	
#timeindex 130
5.9638307564	6.6721793464	119.7551160457	0.1174626000	-0.0089318689	0.9930371389	1580.9670018100	-23.9323551764	-187.2218549197	27.1338224747	1698.0805483745	12.0638221677	0.0000000000	0.0000000000	0.0106666667	0.0100000000	1280	720	0.0000000000	0.0000000000	16.9834016878	43.7964158396	0.9929487820	-0.0150310556	-0.1175873453	0.0159766712	0.9998471329	0.0071033014	
#timeindex 131
5.9747309692	6.6553719512	119.9332548238	0.1156029179	-0.0096072201	0.9932490457	1581.2513196136	-27.5147311555	-184.3058468564	31.0396237887	1698.0081683569	12.8113560380	0.0000000000	0.0000000000	0.0106666667	0.0100000000	1280	720	0.0000000000	-0.0000000000	16.9834016878	43.7964158396	0.9931273518	-0.0172810177	-0.1157559050	0.0182764468	0.9998045148	0.0075434570	
#timeindex 132
5.9943640105	6.6419920147	120.1271728455	0.1135555090	-0.0086150193	0.9934943019	1581.4953847029	-34.2195764433	-181.0602390013	37.9272444388	1697.8848434311	10.3880446263	0.0000000000	0.0000000000	0.0106666667	0.0100000000	1280	720	0.0000000000	-0.0000000000	16.9834016878	43.7964158396	0.9932806403	-0.0214920910	-0.1137174549	0.0223319481	0.9997318998	0.0061165865	
#timeindex 133
6.0087079785	6.6304479413	120.3211069149	0.1119356440	-0.0048911828	0.9937034205	1581.6444369103	-40.8430414219	-178.3652504105	44.2221728088	1697.7609772429	3.3752745651	0.0000000000	0.0000000000	0.0106666667	0.0100000000	1280	720	-0.0000000000	0.0000000000	16.9834016878	43.7964158396	0.9933742547	-0.0256520523	-0.1120248291	0.0260384660	0.9996589661	0.0019873961	
#timeindex 134
6.0288474249	6.6258503530	120.5313507296	0.1095130608	0.0004381589	0.9939852602	1582.0851334746	-41.3685791459	-174.2891634440	43.7796176699	1697.7666590315	-5.5718446371	0.0000000000	0.0000000000	0.0106666667	0.0100000000	1280	720	-0.0000000000	0.0000000000	16.9834016878	43.7964158396	0.9936510404	-0.0259821237	-0.1094647847	0.0257778851	0.9996623116	-0.0032807589	
#timeindex 135
6.0371348921	6.6231055780	120.7242581692	0.1061854994	0.0038733519	0.9943387938	1582.7247249293	-39.3466842907	-168.8659969585	41.0345143190	1697.8087617416	-10.9957302210	0.0000000000	0.0000000000	0.0106666667	0.0100000000	1280	720	0.0000000000	0.0000000000	16.9834016878	43.7964158396	0.9940527449	-0.0247122440	-0.1060586880	0.0241615402	0.9996871021	-0.0064743980	
#timeindex 136
6.0440522314	6.6220986758	120.8902173528	0.1026130327	0.0040728502	0.9947130126	1583.2561457195	-41.9771222385	-163.1543430187	43.8300656284	1697.7357358369	-11.4728158855	0.0000000000	0.0000000000	0.0106666667	0.0100000000	1280	720	0.0000000000	0.0000000000	16.9834016878	43.7964158396	0.9943865113	-0.0263643279	-0.1024714026	0.0258075893	0.9996441037	-0.0067553109	
#timeindex 137
6.0557767797	6.6347004807	121.0658057122	0.0998012970	0.0017813286	0.9950057929	1583.6511101986	-43.8658560601	-158.7652015866	46.2548990898	1697.6928017987	-7.6787971799	0.0000000000	0.0000000000	0.0106666667	0.0100000000	1280	720	0.0000000000	0.0000000000	16.9834016878	43.7964158396	0.9946345744	-0.0275505740	-0.0997147400	0.0272353560	0.9996188237	-0.0045213540	
#timeindex 138
6.0668063820	6.6461326738	121.2422686890	0.0993477467	-0.0018896192	0.9950509809	1583.6656810343	-45.3486356604	-158.2022545789	48.4513561801	1697.6481352864	-1.6136102818	0.0000000000	0.0000000000	0.0106666667	0.0100000000	1280	720	0.0000000000	-0.0000000000	16.9834016878	43.7964158396	0.9946437258	-0.0284818548	-0.0993611731	0.0285286523	0.9995925236	-0.0009501102	
#timeindex 139
6.0774681327	6.6624029588	121.4234289191	0.1004511190	-0.0037986825	0.9949347429	1583.3950162660	-48.2327278191	-160.0477048476	51.8361461997	1697.5484634952	1.2477689432	0.0000000000	0.0000000000	0.0106666667	0.0100000000	1280	720	0.0000000000	-0.0000000000	16.9834016878	43.7964158396	0.9944737309	-0.0302932498	-0.1005202344	0.0305216512	0.9995338359	0.0007346991	
#timeindex 140
6.0801130226	6.6793372296	121.6123706268	0.1038750707	-0.0053113878	0.9945761705	1582.9609115536	-43.6585525214	-165.5600334647	47.2545168130	1697.6776123597	4.1308629352	0.0000000000	0.0000000000	0.0106666667	0.0100000000	1280	720	0.0000000000	-0.0000000000	16.9834016878	43.7964158396	0.9942010853	-0.0274203740	-0.1039823307	0.0278239411	0.9996098800	0.0024322942	
#timeindex 141
6.0828271793	6.6855218883	121.8049714425	0.1086561643	-0.0083269562	0.9940445160	1582.2818777192	-37.9741157325	-173.2728119805	41.8035163825	1697.7981679165	9.6527681339	0.0000000000	0.0000000000	0.0106666667	0.0100000000	1280	720	0.0000000000	0.0000000000	16.9834016878	43.7964158396	0.9937746084	-0.0238501828	-0.1088264508	0.0246143365	0.9996808644	0.0056836483	
#timeindex 142
6.0772821462	6.6959669637	121.9848392025	0.1132909821	-0.0108935052	0.9935021313	1581.4987679860	-35.7562754506	-180.7334418983	39.9922736652	1697.8110568482	14.0556816271	0.0000000000	0.0000000000	0.0106666667	0.0100000000	1280	720	0.0000000000	0.0000000000	16.9834016878	43.7964158396	0.9932827653	-0.0224572367	-0.1135122054	0.0235478583	0.9996884535	0.0082761286	
#timeindex 143
6.0839520700	6.7010615076	122.1912085484	0.1177830916	-0.0109343339	0.9929791456	1580.6051626168	-38.2129117637	-187.9056536659	42.6658641528	1697.7494109770	13.6341651186	0.0000000000	0.0000000000	0.0106666667	0.0100000000	1280	720	0.0000000000	0.0000000000	16.9834016878	43.7964158396	0.9927215237	-0.0240001620	-0.1180168148	0.0251220956	0.9996521558	0.0080279354	
#timeindex 144
6.0866394851	6.7037192235	122.4038554551	0.1213624663	-0.0105927976	0.9925517339	1579.8195476860	-41.9975189733	-193.6177846821	46.6513752418	1697.6539340091	12.4136387257	0.0000000000	0.0000000000	0.0106666667	0.0100000000	1280	720	0.0000000000	-0.0000000000	16.9834016878	43.7964158396	0.9922281071	-0.0263771383	-0.1216043999	0.0274688052	0.9995959380	0.0073092770	
#timeindex 145
6.0864650931	6.6900304688	122.6075294693	0.1256935624	-0.0103200679	0.9920154356	1579.0734698992	-37.6908262944	-200.4689992731	42.0893174972	1697.7737800971	12.3292279710	0.0000000000	0.0000000000	0.0106666667	0.0100000000	1280	720	-0.0000000000	-0.0000000000	16.9834016878	43.7964158396	0.9917595223	-0.0236722588	-0.1259074025	0.0247826191	0.9996665046	0.0072595751	
#timeindex 146
6.0872332434	6.6851273826	122.8071734710	0.1295601507	-0.0104741642	0.9915162426	1578.2955715733	-37.0224441719	-206.6249471279	41.4640835840	1697.7877909849	12.5170064337	0.0000000000	0.0000000000	0.0106666667	0.0100000000	1280	720	0.0000000000	-0.0000000000	16.9834016878	43.7964158396	0.9912709522	-0.0232524719	-0.1297737330	0.0244144750	0.9996747543	0.0073701410	
#timeindex 147
6.0870758601	6.6727283335	123.0032505119	0.1327749815	-0.0114403279	0.9910801800	1577.5796211536	-38.3235055508	-211.7906731636	43.0982629549	1697.7369574518	13.8236003894	0.0000000000	0.0000000000	0.0106666667	0.0100000000	1280	720	-0.0000000000	-0.0000000000	16.9834016878	43.7964158396	0.9908212894	-0.0240696220	-0.1330181406	0.0253766965	0.9996448230	0.0081394768	
#timeindex 148
6.0835095407	6.6576902261	123.1956772085	0.1373416917	-0.0127653579	0.9904414699	1576.7367523446	-31.6245480449	-219.0491797810	36.3930720362	1697.8667217143	16.8365227353	0.0000000000	0.0000000000	0.0106666667	0.0100000000	1280	720	0.0000000000	-0.0000000000	16.9834016878	43.7964158396	0.9902919137	-0.0198622466	-0.1375769488	0.0214286117	0.9997212295	0.0099135162	
#timeindex 149
6.0814733461	6.6490104060	123.3910175792	0.1405367182	-0.0115893044	0.9900076358	1576.1662579169	-24.3313698206	-224.0298043628	28.4635642758	1698.0277803226	15.8370343311	0.0000000000	0.0000000000	0.0106666667	0.0100000000	1280	720	0.0000000000	-0.0000000000	16.9834016878	43.7964158396	0.9899336066	-0.0152816624	-0.1407051008	0.0167596367	0.9998160625	0.0093250072	
#timeindex 150
6.0860078272	6.6400417595	123.5935090335	0.1405736853	-0.0076435578	0.9900407138	1576.2429665642	-19.5519691537	-223.9581930961	22.4736884191	1698.1624963582	9.9195859992	0.0000000000	0.0000000000	0.0106666667	0.0100000000	1280	720	0.0000000000	-0.0000000000	16.9834016878	43.7964158396	0.9899817845	-0.0122798919	-0.1406601243	0.0132327368	0.9998953847	0.0058407533	
#timeindex 151
6.0846881436	6.6327631668	123.7927686173	0.1376833013	-0.0015864835	0.9904750333	1576.9725455482	-13.2796157261	-219.2320318505	14.4009982214	1698.2789594494	0.7183569164	0.0000000000	0.0000000000	0.0106666667	0.0100000000	1280	720	0.0000000000	-0.0000000000	16.9834016878	43.7964158396	0.9904400070	-0.0083404513	-0.1376917916	0.0084794545	0.9999639593	0.0004229759	
#timeindex 152
6.0879574403	6.6331372973	123.9844308684	0.1331291298	0.0042121034	0.9910897502	1578.0001054463	-9.1555855623	-211.9275438927	8.7267693579	1698.2970238419	-8.3899464523	0.0000000000	0.0000000000	0.0106666667	0.0100000000	1280	720	-0.0000000000	0.0000000000	16.9834016878	43.7964158396	0.9910853806	-0.0057502956	-0.1331041042	0.0051384107	0.9999745958	-0.0049400860	
#timeindex 153
6.0932801841	6.6426042466	124.1837104027	0.1306379621	0.0078317460	0.9913992065	1578.5274582938	-9.9665579166	-207.9258823033	8.8025758995	1698.2548086388	-14.5756127751	0.0000000000	0.0000000000	0.0106666667	0.0100000000	1280	720	-0.0000000000	0.0000000000	16.9834016878	43.7964158396	0.9914165920	-0.0062596383	-0.1305908038	0.0051830464	0.9999497391	-0.0085822693	
#timeindex 154
6.0969687889	6.6548271505	124.3662070083	0.1308994413	0.0080128766	0.9913632685	1578.4719974648	-10.1129730845	-208.3394403150	8.9133139472	1698.2513866043	-14.9033427780	0.0000000000	0.0000000000	0.0106666667	0.0100000000	1280	720	-0.0000000000	0.0000000000	16.9834016878	43.7964158396	0.9913817590	-0.0063515964	-0.1308505448	0.0052482501	0.9999477241	-0.0087752401	
#timeindex 155
6.1016047515	6.6710509599	124.5480578164	0.1317700151	0.0046230736	0.9912695346	1578.2863109344	-9.7895479325	-209.7568279321	9.3166499936	1698.2899171862	-9.1589361735	0.0000000000	0.0000000000	0.0106666667	0.0100000000	1280	720	0.0000000000	0.0000000000	16.9834016878	43.7964158396	0.9912651360	-0.0061484646	-0.1317407552	0.0054857385	0.9999704113	-0.0053928750	
#timeindex 156
6.1031065530	6.6898967600	124.7107667417	0.1318046547	0.0004586242	0.9912756038	1578.2690438364	-10.5637601724	-209.8491687728	11.0670462160	1698.3026097081	-2.2572642170	0.0000000000	0.0000000000	0.0106666667	0.0100000000	1280	720	0.0000000000	0.0000000000	16.9834016878	43.7964158396	0.9912542911	-0.0066347196	-0.1317987512	0.0065163896	0.9999778848	-0.0013291002	
#timeindex 157
6.1077545986	6.7158588276	124.8895032823	0.1326714315	-0.0027648823	0.9911562171	1578.0605294619	-13.1201901438	-211.2682355699	14.4941758140	1698.2760149119	2.7973089532	0.0000000000	0.0000000000	0.0106666667	0.0100000000	1280	720	0.0000000000	0.0000000000	16.9834016878	43.7964158396	0.9911233307	-0.0082403218	-0.1326900163	0.0085343184	0.9999622255	0.0016470840	
#timeindex 158
6.1155101554	6.7340361114	125.0738757245	0.1334036153	-0.0058468521	0.9910445448	1577.8800640925	-15.0261822387	-212.4856667696	17.2095874229	1698.2355050592	7.7024899959	0.0000000000	0.0000000000	0.0106666667	0.0100000000	1280	720	0.0000000000	0.0000000000	16.9834016878	43.7964158396	0.9910099869	-0.0094374072	-0.1334546412	0.0101331805	0.9999383729	0.0045353046	
#timeindex 159
6.1190363571	6.7494597291	125.2524054116	0.1347682400	-0.0097239962	0.9908294330	1577.5849787256	-14.2823525843	-214.7163028275	17.3218942150	1698.1915395039	14.3099976732	0.0000000000	0.0000000000	0.0106666667	0.0100000000	1280	720	0.0000000000	-0.0000000000	16.9834016878	43.7964158396	0.9908246543	-0.0089702344	-0.1348556239	0.0101993078	0.9999124856	0.0084258725	
#timeindex 160
6.1277591799	6.7585883475	125.4408092193	0.1362141849	-0.0128226888	0.9905964236	1577.2985767930	-10.5056621650	-217.0259710380	14.0690430452	1698.1635678939	20.0471344792	0.0000000000	0.0000000000	0.0106666667	0.0100000000	1280	720	0.0000000000	0.0000000000	16.9834016878	43.7964158396	0.9906447755	-0.0065982303	-0.1363062438	0.0082839959	0.9998960156	0.0118039571	
#timeindex 161
6.1344821744	6.7626425211	125.6269600686	0.1359989877	-0.0142368211	0.9906066769	1577.3296550280	-12.0084366019	-216.7219375501	15.9798068513	1698.1197354973	22.2112264981	0.0000000000	0.0000000000	0.0106666667	0.0100000000	1280	720	0.0000000000	0.0000000000	16.9834016878	43.7964158396	0.9906642946	-0.0075420692	-0.1361152913	0.0094090731	0.9998702066	0.0130781965	
#timeindex 162
6.1496726172	6.7661649774	125.8102115170	0.1350816685	-0.0133968315	0.9907438961	1577.4535654336	-18.8281999755	-215.3304186187	22.9745808438	1698.0689958717	19.8288373158	0.0000000000	0.0000000000	0.0106666667	0.0100000000	1280	720	0.0000000000	0.0000000000	16.9834016878	43.7964158396	0.9907421183	-0.0118253184	-0.1352413280	0.0135276673	0.9998403306	0.0116754215	
#timeindex 163
6.1598719832	6.7609228079	126.0208156357	0.1349473282	-0.0108987092	0.9907928324	1577.3790517652	-26.0188624633	-215.1273744653	29.9988406814	1698.0125044153	14.5922343105	0.0000000000	0.0000000000	0.0106666667	0.0100000000	1280	720	0.0000000000	0.0000000000	16.9834016878	43.7964158396	0.9906953190	-0.0163415161	-0.1351138033	0.0176636231	0.9998070679	0.0085920563	
#timeindex 164
6.1699736713	6.7498907151	126.2224904601	0.1350484646	-0.0070235184	0.9908141008	1577.3458847515	-27.4876598699	-215.1878941951	30.6629729505	1698.0451618240	7.8574417585	0.0000000000	0.0000000000	0.0106666667	0.0100000000	1280	720	-0.0000000000	-0.0000000000	16.9834016878	43.7964158396	0.9906744880	-0.0172640152	-0.1351518135	0.0180546710	0.9998262969	0.0046265418	
#timeindex 165
6.1798135209	6.7359517177	126.4122009553	0.1341662536	-0.0047718535	0.9909473476	1577.5280694704	-28.4556562550	-213.7215643212	31.1657654282	1698.0495764098	3.9572736700	0.0000000000	0.0000000000	0.0106666667	0.0100000000	1280	720	-0.0000000000	0.0000000000	16.9834016878	43.7964158396	0.9907889117	-0.0178719791	-0.1342308642	0.0183507203	0.9998288963	0.0023300831	
#timeindex 166
6.1926537408	6.7228766249	126.5998445185	0.1327735511	-0.0042970165	0.9911370843	1577.7171155018	-34.0288987621	-211.4998319090	36.9451965550	1697.9365604008	2.4120946930	0.0000000000	0.0000000000	0.0106666667	0.0100000000	1280	720	-0.0000000000	-0.0000000000	16.9834016878	43.7964158396	0.9909076447	-0.0213723332	-0.1328354736	0.0217537083	0.9997623513	0.0014202659	
#timeindex 167
6.2037596263	6.7090588399	126.7842901275	0.1299476075	-0.0031792637	0.9915157647	1578.1466885315	-41.2384932138	-206.9634208029	44.3163812567	1697.7618368187	-0.3642656182	0.0000000000	0.0000000000	0.0106666667	0.0100000000	1280	720	0.0000000000	0.0000000000	16.9834016878	43.7964158396	0.9911774441	-0.0259004214	-0.1299863162	0.0260939369	0.9996594722	-0.0002144833	
#timeindex 168
6.2143783770	6.6994108975	126.9660088498	0.1259431661	0.0002341529	0.9920374308	1578.7407010760	-49.9276776964	-200.4157358140	52.7820769843	1697.5049187051	-7.1015643603	0.0000000000	0.0000000000	0.0106666667	0.0100000000	1280	720	0.0000000000	-0.0000000000	16.9834016878	43.7964158396	0.9915505222	-0.0313577872	-0.1258739496	0.0310786249	0.9995081962	-0.0041814735	
#timeindex 169
6.2220444533	6.6931780087	127.1628315661	0.1218056131	0.0061585200	0.9925348685	1579.3845985436	-56.5107631393	-193.4741970609	58.5572140178	1697.2378966091	-17.7173331895	0.0000000000	0.0000000000	0.0106666667	0.0100000000	1280	720	0.0000000000	-0.0000000000	16.9834016878	43.7964158396	0.9919549311	-0.0354923875	-0.1215142176	0.0344790844	0.9993509709	-0.0104321463	
#timeindex 170
6.2264588197	6.6907159660	127.3437938739	0.1174265366	0.0109035699	0.9930217121	1580.2432698507	-56.8001710593	-186.2428255131	57.9979642087	1697.1581091245	-25.4934830057	0.0000000000	0.0000000000	0.0106666667	0.0100000000	1280	720	0.0000000000	0.0000000000	16.9834016878	43.7964158396	0.9924942318	-0.0356741542	-0.1169724520	0.0341497924	0.9993039912	-0.0150108226	
#timeindex 171
6.2326580738	6.6916692582	127.5172783917	0.1134732876	0.0116971904	0.9934721882	1581.0021188440	-56.0574227024	-179.9202794752	57.1593905472	1697.1709655352	-26.5112563198	0.0000000000	0.0000000000	0.0106666667	0.0100000000	1280	720	0.0000000000	-0.0000000000	16.9834016878	43.7964158396	0.9929708377	-0.0352076606	-0.1130014872	0.0336560317	0.9993115612	-0.0156100979	
#timeindex 172
6.2394412790	6.6966802739	127.6698574489	0.1096632663	0.0089079100	0.9939288793	1581.5727928931	-58.6683420274	-173.9740435231	60.5465752765	1697.1193978522	-21.8904214509	0.0000000000	0.0000000000	0.0106666667	0.0100000000	1280	720	-0.0000000000	0.0000000000	16.9834016878	43.7964158396	0.9933292576	-0.0368474856	-0.1092668692	0.0356504406	0.9992811976	-0.0128893032	
#timeindex 173
6.2331516175	6.7149730590	127.8525699240	0.1081192853	0.0058627889	0.9941206405	1581.7417951796	-60.8604221477	-171.6692861110	63.4625504641	1697.0697888473	-16.9105105016	0.0000000000	0.0000000000	0.0106666667	0.0100000000	1280	720	0.0000000000	0.0000000000	16.9834016878	43.7964158396	0.9934354019	-0.0382242526	-0.1078193336	0.0373673965	0.9992519873	-0.0099570809	
#timeindex 174
6.2328544603	6.7265341815	128.0281016836	0.1095355721	0.0039227909	0.9939751356	1581.4986415183	-60.4394256247	-174.0418458351	63.3520602792	1697.1030397703	-13.6790992376	0.0000000000	0.0000000000	0.0106666667	0.0100000000	1280	720	0.0000000000	0.0000000000	16.9834016878	43.7964158396	0.9932826858	-0.0379598398	-0.1093094534	0.0373023387	0.9992715658	-0.0080543930	
#timeindex 175
6.2350828783	6.7439379737	128.2126373992	0.1113858262	0.0020271725	0.9937751699	1581.2230048621	-58.7158722769	-177.1092787899	61.8574345501	1697.1814652206	-10.3952295610	0.0000000000	0.0000000000	0.0106666667	0.0100000000	1280	720	0.0000000000	0.0000000000	16.9834016878	43.7964158396	0.9931095683	-0.0368773376	-0.1112359983	0.0364222879	0.9993177435	-0.0061208171	
#timeindex 176
6.2301634225	6.7596037708	128.3831223667	0.1119232036	-0.0010243077	0.9937163314	1581.0978718708	-58.9629750445	-178.1413161940	62.6932722951	1697.1743185339	-5.3117805783	0.0000000000	0.0000000000	0.0106666667	0.0100000000	1280	720	0.0000000000	-0.0000000000	16.9834016878	43.7964158396	0.9930309768	-0.0370325340	-0.1118841840	0.0369144377	0.9993135355	-0.0031276305	
#timeindex 177
6.2301488457	6.7724213449	128.5675949351	0.1127694352	-0.0039337726	0.9936133956	1580.9703982438	-57.7616325229	-179.6597759122	61.9727706996	1697.2090636869	-0.3142065473	0.0000000000	0.0000000000	0.0106666667	0.0100000000	1280	720	0.0000000000	-0.0000000000	16.9834016878	43.7964158396	0.9929509151	-0.0362780138	-0.1128378742	0.0364901990	0.9993339938	-0.0001850080	
#timeindex 178
6.2232948937	6.7809737641	128.7576873632	0.1160867714	-0.0049433834	0.9932267739	1580.5478973036	-52.2282546697	-184.9918785759	56.3082524632	1697.4054389509	1.8669278396	0.0000000000	0.0000000000	0.0106666667	0.0100000000	1280	720	0.0000000000	-0.0000000000	16.9834016878	43.7964158396	0.9926855574	-0.0328026972	-0.1161867770	0.0331548729	0.9994496215	0.0010992661	
#timeindex 179
6.2205797610	6.7885310184	128.9574040898	0.1208409113	-0.0051345030	0.9926586075	1579.6222776782	-52.8436525505	-192.5680389984	57.0074109153	1697.3821310440	1.8398935671	0.0000000000	0.0000000000	0.0106666667	0.0100000000	1280	720	0.0000000000	-0.0000000000	16.9834016878	43.7964158396	0.9921042089	-0.0331892066	-0.1209450922	0.0335665445	0.9994358976	0.0010833481	
#timeindex 180
6.2110293181	6.7894136234	129.1499549114	0.1271663882	-0.0062841994	0.9918614916	1578.2916816793	-54.6804144459	-202.6989423103	59.2098111980	1697.3047829184	3.1624413499	0.0000000000	0.0000000000	0.0106666667	0.0100000000	1280	720	-0.0000000000	-0.0000000000	16.9834016878	43.7964158396	0.9912685091	-0.0343428110	-0.1273079499	0.0348633403	0.9993903543	0.0018620777	
#timeindex 181
6.2058162121	6.7866354544	129.3583363878	0.1333791851	-0.0068671256	0.9910412885	1576.8919340545	-57.3126998148	-212.6229624232	62.1433178252	1697.1994577728	3.3966866816	0.0000000000	0.0000000000	0.0106666667	0.0100000000	1280	720	-0.0000000000	-0.0000000000	16.9834016878	43.7964158396	0.9903893778	-0.0359960552	-0.1335408717	0.0365906189	0.9993283377	0.0020000037	
#timeindex 182
6.2035109766	6.7782141037	129.5750051785	0.1385300675	-0.0060152042	0.9903399607	1575.5982140878	-61.8960132097	-220.7727173088	66.8011608184	1697.0256350088	0.9632918659	0.0000000000	0.0000000000	0.0106666667	0.0100000000	1280	720	-0.0000000000	-0.0000000000	16.9834016878	43.7964158396	0.9895768386	-0.0388746703	-0.1386594410	0.0393332043	0.9992259891	0.0005671961	
#timeindex 183
6.1974287068	6.7686503451	129.7646617959	0.1428181893	-0.0070955007	0.9897235062	1574.5414877678	-63.7888660336	-227.6653800297	69.0653226747	1696.9338445209	2.1994131971	0.0000000000	0.0000000000	0.0106666667	0.0100000000	1280	720	0.0000000000	-0.0000000000	16.9834016878	43.7964158396	0.9889131466	-0.0400635034	-0.1429884757	0.0406663659	0.9991719419	0.0012950369	
#timeindex 184
6.1910777427	6.7522145790	129.9433663019	0.1476275098	-0.0102704609	0.9889897047	1573.6531932489	-56.9261652149	-235.4919966522	62.6325361917	1697.1646975187	8.2754940258	0.0000000000	0.0000000000	0.0106666667	0.0100000000	1280	720	0.0000000000	0.0000000000	16.9834016878	43.7964158396	0.9883552406	-0.0357532867	-0.1479040935	0.0368786756	0.9993078705	0.0048726952	
#timeindex 185
6.1879050944	6.7395708887	130.1181926986	0.1520542681	-0.0131407105	0.9882847875	1572.7568077540	-51.3114851934	-242.6614855028	57.4923782019	1697.3112983264	13.7226789464	0.0000000000	0.0000000000	0.0106666667	0.0100000000	1280	720	0.0000000000	0.0000000000	16.9834016878	43.7964158396	0.9877922530	-0.0322269071	-0.1524069928	0.0338520982	0.9993941906	0.0080800532	
#timeindex 186
6.1920000623	6.7413369696	130.3175686651	0.1556173083	-0.0130616193	0.9877310603	1571.9067920190	-50.2795077502	-248.3192495576	56.4331552049	1697.3481979475	13.5544388693	0.0000000000	0.0000000000	0.0106666667	0.0100000000	1280	720	0.0000000000	0.0000000000	16.9834016878	43.7964158396	0.9872583885	-0.0315787590	-0.1559604319	0.0332284169	0.9994159175	0.0079809917	
#timeindex 187
6.1933979738	6.7412142803	130.5104630780	0.1567722919	-0.0091703261	0.9875922001	1571.7438369433	-47.2499038660	-249.9403909160	52.2193828358	1697.5207272302	7.4729897083	0.0000000000	0.0000000000	0.0106666667	0.0100000000	1280	720	-0.0000000000	0.0000000000	16.9834016878	43.7964158396	0.9871560423	-0.0296759733	-0.1569786127	0.0307473048	0.9995175045	0.0044001725	
#timeindex 188
6.1926209744	6.7490840037	130.7098368274	0.1557198692	-0.0040722976	0.9877928623	1572.1143091401	-44.9887892110	-248.0202597333	48.4795916437	1697.6479740081	-0.6437664933	0.0000000000	0.0000000000	0.0106666667	0.0100000000	1280	720	0.0000000000	0.0000000000	16.9834016878	43.7964158396	0.9873887226	-0.0282558481	-0.1557726471	0.0285452776	0.9995924287	-0.0003790563	
#timeindex 189
6.1969725118	6.7598649951	130.8957229569	0.1544719170	-0.0008232384	0.9879968366	1572.5095364453	-42.7866431685	-245.8953077038	45.3071984744	1697.7262582429	-5.6691034558	0.0000000000	0.0000000000	0.0106666667	0.0100000000	1280	720	-0.0000000000	0.0000000000	16.9834016878	43.7964158396	0.9876369507	-0.0268727590	-0.1544380408	0.0266773402	0.9996385232	-0.0033380259	
#timeindex 190
6.1999960008	6.7735438035	131.0720552780	0.1529337648	-0.0014234337	0.9882354160	1572.9699467161	-39.5475607593	-243.4809613949	42.0574711202	1697.8144743720	-4.0630814444	0.0000000000	0.0000000000	0.0106666667	0.0100000000	1280	720	-0.0000000000	0.0000000000	16.9834016878	43.7964158396	0.9879261179	-0.0248384073	-0.1529216763	0.0247638676	0.9996904658	-0.0023923838	
#timeindex 191
6.2048625328	6.7893781506	131.2390541268	0.1523491276	-0.0031306998	0.9883217806	1573.2077341987	-35.1327618251	-242.6201877414	37.8475143529	1697.9183392919	-0.4556847211	0.0000000000	0.0000000000	0.0106666667	0.0100000000	1280	720	-0.0000000000	0.0000000000	16.9834016878	43.7964158396	0.9880754637	-0.0220656301	-0.1523810552	0.0222850022	0.9997516225	-0.0002683118	
#timeindex 192
6.2142726326	6.8146595373	131.4216928445	0.1538454275	-0.0038116466	0.9880875750	1572.9073166672	-31.7342315153	-245.0243929097	34.4428226838	1697.9904625495	1.1874138459	0.0000000000	0.0000000000	0.0106666667	0.0100000000	1280	720	-0.0000000000	-0.0000000000	16.9834016878	43.7964158396	0.9878867822	-0.0199311349	-0.1538910504	0.0202802850	0.9997940894	0.0006991614	
#timeindex 193
6.2245080694	6.8403127526	131.6083601948	0.1555774053	-0.0050021211	0.9878110395	1572.4328641491	-33.4667345711	-247.8231361616	36.5850146198	1697.9437040753	2.8360873540	0.0000000000	0.0000000000	0.0106666667	0.0100000000	1280	720	-0.0000000000	-0.0000000000	16.9834016878	43.7964158396	0.9875887956	-0.0210192580	-0.1556488408	0.0215416295	0.9997665575	0.0016699171	
#timeindex 194
6.2395033509	6.8550683849	131.7933860291	0.1560281813	-0.0072082975	0.9877263017	1572.2674696648	-35.2521495033	-248.6236738225	39.0524039003	1697.8797149536	6.2219123818	0.0000000000	0.0000000000	0.0106666667	0.0100000000	1280	720	-0.0000000000	0.0000000000	16.9834016878	43.7964158396	0.9874849172	-0.0221406132	-0.1561516299	0.0229944534	0.9997288801	0.0036635254	
#timeindex 195
6.2519401765	6.8710684390	131.9970084823	0.1560926594	-0.0079250567	0.9877106232	1572.3392351736	-31.0247504182	-248.7332623335	34.7890141720	1697.9643757217	8.1260179720	0.0000000000	0.0000000000	0.0106666667	0.0100000000	1280	720	-0.0000000000	-0.0000000000	16.9834016878	43.7964158396	0.9875299906	-0.0194855352	-0.1562204585	0.0204841261	0.9997787292	0.0047846822	
#timeindex 196
6.2650639866	6.8767320343	132.1979307254	0.1568904585	-0.0065086248	0.9875945635	1572.2138349142	-27.4371279907	-249.9445992772	30.6384576541	1698.0520093765	6.3235480687	0.0000000000	0.0000000000	0.0106666667	0.0100000000	1280	720	0.0000000000	0.0000000000	16.9834016878	43.7964158396	0.9874512312	-0.0172322780	-0.1569812559	0.0180402361	0.9998303288	0.0037233695	
#timeindex 197
6.2788584279	6.8827432785	132.4036539010	0.1565501745	-0.0059573218	0.9876520405	1572.1658382720	-34.2407054016	-249.4064803889	37.6572770240	1697.9172546847	4.2725432951	0.0000000000	0.0000000000	0.0106666667	0.0100000000	1280	720	0.0000000000	0.0000000000	16.9834016878	43.7964158396	0.9874210862	-0.0215053614	-0.1566432826	0.0221729885	0.9997509839	0.0025157170	
#timeindex 198
6.2983074754	6.8824226348	132.5889821868	0.1539425338	-0.0058459735	0.9880625086	1572.5700747718	-44.1225356088	-245.2712848653	48.0316508360	1697.6588971496	2.5609259798	0.0000000000	0.0000000000	0.0106666667	0.0100000000	1280	720	0.0000000000	0.0000000000	16.9834016878	43.7964158396	0.9876749727	-0.0277117852	-0.1540461144	0.0282815255	0.9995988603	0.0015078993	
#timeindex 199
6.3102266458	6.8786793729	132.8012198337	0.1527362618	-0.0038806847	0.9882593661	1572.5368350933	-55.1109616229	-243.2532128866	59.1017738891	1697.3096983223	-2.4692507836	0.0000000000	0.0000000000	0.0106666667	0.0100000000	1280	720	0.0000000000	0.0000000000	16.9834016878	43.7964158396	0.9876540960	-0.0346132223	-0.1527786356	0.0347997268	0.9993932485	-0.0014539200	
#timeindex 200
6.3255803834	6.8688034083	133.0051944065	0.1535852356	-0.0018872857	0.9881336011	1572.2011241982	-59.1170002774	-244.4795425882	62.8020235887	1697.1660870494	-6.5197927559	0.0000000000	0.0000000000	0.0106666667	0.0100000000	1280	720	-0.0000000000	0.0000000000	16.9834016878	43.7964158396	0.9874432480	-0.0371292717	-0.1535488494	0.0369784715	0.9993086887	-0.0038389204	
#timeindex 201
6.3386457552	6.8593577510	133.2005338741	0.1556610538	-0.0015234547	0.9878093518	1571.7678541172	-56.8962459682	-247.7701986810	60.3521178907	1697.2534990054	-6.8928133016	0.0000000000	0.0000000000	0.0106666667	0.0100000000	1280	720	-0.0000000000	0.0000000000	16.9834016878	43.7964158396	0.9871711266	-0.0357344954	-0.1556155927	0.0355359421	0.9993601578	-0.0040585587	
#timeindex 202
6.3508485483	6.8466531803	133.3864754102	0.1571904122	-0.0014620817	0.9875672315	1571.2941804745	-59.3393557676	-250.1896893559	62.8985611208	1697.1584682713	-7.4988985285	0.0000000000	0.0000000000	0.0106666667	0.0100000000	1280	720	-0.0000000000	0.0000000000	16.9834016878	43.7964158396	0.9868736291	-0.0372689253	-0.1571351882	0.0370353138	0.9993042027	-0.0044154279	
#timeindex 203
6.3625080281	6.8417816935	133.5829118257	0.1566419548	0.0000407548	0.9876554543	1571.0834833974	-68.4988626336	-249.1706953265	72.1526617363	1696.7677400318	-11.5134133440	0.0000000000	0.0000000000	0.0106666667	0.0100000000	1280	720	-0.0000000000	0.0000000000	16.9834016878	43.7964158396	0.9867412978	-0.0430216837	-0.1564951945	0.0424842226	0.9990741379	-0.0067792151	
#timeindex 204
6.3725682089	6.8428894833	133.7842730603	0.1547614531	0.0040957469	0.9879433777	1571.2565269346	-76.1977132641	-245.8216354482	79.2236832250	1696.3799401858	-19.4431336587	0.0000000000	0.0000000000	0.0106666667	0.0100000000	1280	720	-0.0000000000	-0.0000000000	16.9834016878	43.7964158396	0.9868499803	-0.0478570561	-0.1543917699	0.0466477121	0.9988457974	-0.0114483153	
#timeindex 205
6.3806485532	6.8416006770	133.9682210640	0.1517868104	0.0081585886	0.9883795838	1571.8379218203	-80.3616812798	-240.7259626739	82.6281184121	1696.1189727880	-26.6899436343	0.0000000000	0.0000000000	0.0106666667	0.0100000000	1280	720	0.0000000000	-0.0000000000	16.9834016878	43.7964158396	0.9872151336	-0.0504722954	-0.1511913602	0.0486522782	0.9986921372	-0.0157153108	
#timeindex 206
6.3896351971	6.8444458110	134.1534244772	0.1490069714	0.0091315275	0.9887939814	1572.3885740122	-83.0182835916	-236.1854743657	85.2599946835	1695.9590833664	-28.5105199639	0.0000000000	0.0000000000	0.0106666667	0.0100000000	1280	720	-0.0000000000	-0.0000000000	16.9834016878	43.7964158396	0.9875609785	-0.0521408122	-0.1483396420	0.0502019538	0.9985979926	-0.0167872847	
#timeindex 207
6.3990806932	6.8542056403	134.3313900367	0.1464431562	0.0078481422	0.9891879542	1572.8069821936	-86.3819392641	-232.1589945011	89.2010207863	1695.7864713748	-26.6599003713	0.0000000000	0.0000000000	0.0106666667	0.0100000000	1280	720	-0.0000000000	-0.0000000000	16.9834016878	43.7964158396	0.9878237657	-0.0542534039	-0.1458107541	0.0525224701	0.9984963569	-0.0156976210	
#timeindex 208
6.4029146853	6.8686562346	134.5047787720	0.1454786216	0.0054371263	0.9893464551	1572.8352559786	-89.4902781674	-230.7860244035	93.1008818152	1695.6303122714	-23.0086680779	0.0000000000	0.0000000000	0.0106666667	0.0100000000	1280	720	0.0000000000	0.0000000000	16.9834016878	43.7964158396	0.9878415235	-0.0562056403	-0.1449484408	0.0548187480	0.9984044089	-0.0135477383	
#timeindex 209
6.4075228759	6.8924009827	134.6860877833	0.1455089526	0.0023868145	0.9893540559	1572.5292514328	-94.0638624382	-231.0523416182	98.6783837233	1695.3689355519	-18.6031676484	0.0000000000	0.0000000000	0.0106666667	0.0100000000	1280	720	-0.0000000000	0.0000000000	16.9834016878	43.7964158396	0.9876493330	-0.0590781449	-0.1451157051	0.0581028380	0.9982505076	-0.0109537347	
#timeindex 210
6.4188825030	6.9102475351	134.8750135844	0.1465805870	-0.0007456771	0.9891984510	1572.1952641539	-94.7381296037	-233.0411542347	100.1478234862	1695.3305911189	-13.5620486112	0.0000000000	0.0000000000	0.0106666667	0.0100000000	1280	720	-0.0000000000	0.0000000000	16.9834016878	43.7964158396	0.9874395675	-0.0595016280	-0.1463648071	0.0589680591	0.9982279300	-0.0079854724	
#timeindex 211
6.4254095148	6.9222554446	135.0601581839	0.1490016853	-0.0058077444	0.9888198865	1571.6945337332	-92.2547380503	-237.3748034990	98.7753939214	1695.4581932679	-4.9259853379	0.0000000000	0.0000000000	0.0106666667	0.0100000000	1280	720	0.0000000000	-0.0000000000	16.9834016878	43.7964158396	0.9871250767	-0.0579418986	-0.1490866171	0.0581599586	0.9983030634	-0.0029004704	
#timeindex 212
6.4272876090	6.9331016147	135.2499234421	0.1525866679	-0.0104689353	0.9882346433	1570.9560497866	-88.8006790600	-243.5014793244	96.3254492038	1695.6034888836	3.0895333695	0.0000000000	0.0000000000	0.0106666667	0.0100000000	1280	720	0.0000000000	-0.0000000000	16.9834016878	43.7964158396	0.9866612613	-0.0557725278	-0.1529345628	0.0567174062	0.9983886150	0.0018191487	
#timeindex 213
6.4326167182	6.9437354673	135.4478008888	0.1575965273	-0.0135972271	0.9874099706	1569.6195873993	-89.4241633177	-251.7520829375	97.8362034221	1695.5021702727	7.7328387734	0.0000000000	0.0000000000	0.0106666667	0.0100000000	1280	720	0.0000000000	-0.0000000000	16.9834016878	43.7964158396	0.9858218772	-0.0561641160	-0.1581164716	0.0576069537	0.9983289576	0.0045531743	
#timeindex 214
6.4319641956	6.9457186176	135.6492262383	0.1625286092	-0.0151430494	0.9865876237	1568.0077746281	-94.6367364291	-259.7632541750	103.7877767316	1695.1424263986	8.9207914223	0.0000000000	0.0000000000	0.0106666667	0.0100000000	1280	720	0.0000000000	0.0000000000	16.9834016878	43.7964158396	0.9848095552	-0.0594379466	-0.1631480015	0.0611113007	0.9981171367	0.0052526529	
#timeindex 215
6.4279209114	6.9347338435	135.8514861773	0.1674343466	-0.0141905555	0.9857810952	1566.9508918518	-90.6451492914	-267.4505577313	99.3616496217	1695.4143741107	7.5293783479	0.0000000000	0.0000000000	0.0106666667	0.0100000000	1280	720	0.0000000000	-0.0000000000	16.9834016878	43.7964158396	0.9841457650	-0.0569309736	-0.1679761217	0.0585051519	0.9982772623	0.0044333747	
#timeindex 216
6.4284565371	6.9316401544	136.0682781988	0.1717629324	-0.0105238998	0.9850820994	1566.0754548651	-86.1390357272	-273.9875500616	93.5866023340	1695.7587220947	1.7981097031	0.0000000000	0.0000000000	0.0106666667	0.0100000000	1280	720	0.0000000000	-0.0000000000	16.9834016878	43.7964158396	0.9835959344	-0.0541008449	-0.1720817726	0.0551047452	0.9984800179	0.0010587453	
#timeindex 217
6.4322869771	6.9239757787	136.2908387714	0.1762894599	-0.0057639824	0.9843214936	1565.1300226769	-81.2909850193	-280.7868039381	87.0772415799	1696.0969340538	-5.6633194526	0.0000000000	0.0000000000	0.0106666667	0.0100000000	1280	720	0.0000000000	-0.0000000000	16.9834016878	43.7964158396	0.9830021423	-0.0510559578	-0.1763521406	0.0512719673	0.9986791605	-0.0033346202	
#timeindex 218
6.4396001748	6.9133081847	136.4922903374	0.1810960129	-0.0039835868	0.9834573530	1563.9589394283	-77.4235704151	-288.3044708679	82.4440165275	1696.3175561963	-8.3103293573	0.0000000000	0.0000000000	0.0106666667	0.0100000000	1280	720	0.0000000000	0.0000000000	16.9834016878	43.7964158396	0.9822666268	-0.0486269731	-0.1810737181	0.0485438772	0.9988090651	-0.0048932066	
#timeindex 219
6.4471779430	6.9030087284	136.6911915036	0.1862388349	-0.0035152514	0.9824982134	1562.6044908983	-73.8685503035	-296.4659907923	78.5257292660	1696.5009080689	-8.8151948173	0.0000000000	0.0000000000	0.0106666667	0.0100000000	1280	720	0.0000000000	0.0000000000	16.9834016878	43.7964158396	0.9814159462	-0.0463941923	-0.1861996766	0.0462367497	0.9989170245	-0.0051904765	
#timeindex 220
6.4569577655	6.8982863535	136.8903476833	0.1907955534	-0.0020768685	0.9816275992	1561.4463121719	-69.0665837314	-303.6390334137	72.9901686658	1696.7378901796	-10.5969902427	0.0000000000	0.0000000000	0.0106666667	0.0100000000	1280	720	0.0000000000	0.0000000000	16.9834016878	43.7964158396	0.9806885356	-0.0433782490	-0.1907048079	0.0429773552	0.9990565620	-0.0062396159	
#timeindex 221
6.4686830337	6.8979239636	137.0912561516	0.1944958904	0.0012519764	0.9809025340	1560.5454102365	-63.9033696840	-309.3474152610	66.4487270266	1696.9703981592	-15.3415560788	0.0000000000	0.0000000000	0.0106666667	0.0100000000	1280	720	0.0000000000	0.0000000000	16.9834016878	43.7964158396	0.9801227113	-0.0401354190	-0.1942900382	0.0391256877	0.9991934651	-0.0090332646	
#timeindex 222
6.4825053332	6.9054628538	137.2970865557	0.1956098844	0.0049214846	0.9806694408	1560.4642238267	-57.7137674599	-310.9694013858	58.7388767527	1697.2034841890	-20.2337962197	0.0000000000	0.0000000000	0.0106666667	0.0100000000	1280	720	-0.0000000000	0.0000000000	16.9834016878	43.7964158396	0.9800717210	-0.0362479514	-0.1953087496	0.0345860493	0.9993307085	-0.0119138654	
#timeindex 223
6.4899326943	6.9149745850	137.4868265163	0.1943314595	0.0079947121	0.9809033431	1561.0777939169	-52.2619605527	-308.8466451404	52.0477779150	1697.3707158897	-24.1456113854	0.0000000000	0.0000000000	0.0106666667	0.0100000000	1280	720	0.0000000000	0.0000000000	16.9834016878	43.7964158396	0.9804570824	-0.0328238667	-0.1939755224	0.0306462621	0.9994291763	-0.0142171821	
#timeindex 224
6.5064855726	6.9373560917	137.6856484158	0.1936351206	0.0100628301	0.9810220077	1561.4004489658	-49.4024021907	-307.6840620232	48.3932494244	1697.4364199176	-26.9633574033	0.0000000000	0.0000000000	0.0106666667	0.0100000000	1280	720	0.0000000000	0.0000000000	16.9834016878	43.7964158396	0.9806597305	-0.0310278804	-0.1932453456	0.0284944385	0.9994678635	-0.0158762996	
#timeindex 225
6.5233075758	6.9566616180	137.8819831126	0.1939841586	0.0102963870	0.9809506260	1561.4240136746	-44.5413990185	-308.3059433253	43.2197076829	1697.5854215042	-26.3651751226	0.0000000000	0.0000000000	0.0106666667	0.0100000000	1280	720	0.0000000000	0.0000000000	16.9834016878	43.7964158396	0.9806745307	-0.0279748583	-0.1936359270	0.0254482044	0.9995555971	-0.0155240838	
#timeindex 226
6.5405389653	6.9800471633	138.0751216596	0.1948495664	0.0092487697	0.9807895323	1561.2786000179	-38.8649767319	-309.8065333489	37.6032352941	1697.7614684252	-23.4802453390	0.0000000000	0.0000000000	0.0106666667	0.0100000000	1280	720	-0.0000000000	0.0000000000	16.9834016878	43.7964158396	0.9805832016	-0.0244097007	-0.1945783938	0.0221411682	0.9996592553	-0.0138254078	
#timeindex 227
6.5548571920	7.0046115778	138.2601149131	0.1954873715	0.0064631670	0.9806849214	1561.0974408263	-37.0367267269	-310.9413168346	36.5991400437	1697.8451432262	-18.4851688229	0.0000000000	0.0000000000	0.0106666667	0.0100000000	1280	720	0.0000000000	0.0000000000	16.9834016878	43.7964158396	0.9804694219	-0.0232614423	-0.1952911107	0.0215499467	0.9997085239	-0.0108842558	
#timeindex 228
6.5711928439	7.0195016136	138.4429646724	0.1957923599	0.0026971747	0.9806416660	1561.0461107911	-33.6638903354	-311.5818092690	34.3166111143	1697.9543429325	-11.5216497646	0.0000000000	0.0000000000	0.0106666667	0.0100000000	1280	720	0.0000000000	0.0000000000	16.9834016878	43.7964158396	0.9804371834	-0.0211430845	-0.1956933811	0.0202059704	0.9997728218	-0.0067840648	
#timeindex 229
6.5900524814	7.0318723449	138.6332075395	0.1976281403	-0.0000326930	0.9802770614	1560.5958919172	-25.1748408244	-314.6237926739	26.3345119673	1698.1278613284	-5.2525188976	0.0000000000	0.0000000000	0.0106666667	0.0100000000	1280	720	0.0000000000	-0.0000000000	16.9834016878	43.7964158396	0.9801544170	-0.0158114164	-0.1976039420	0.0155060290	0.9998749912	-0.0030927367	
#timeindex 230
6.6042977046	7.0417861662	138.8201983337	0.1983237207	-0.0013056631	0.9801357034	1560.3899942598	-23.5920318062	-315.7656144121	25.1047212658	1698.1522731780	-2.8176170175	0.0000000000	0.0000000000	0.0106666667	0.0100000000	1280	720	0.0000000000	0.0000000000	16.9834016878	43.7964158396	0.9800251001	-0.0148173107	-0.1983210793	0.0147819157	0.9998893652	-0.0016590416	
#timeindex 231
6.6255854263	7.0470149174	138.9977954934	0.1949912536	-0.0041199185	0.9807963281	1561.2853122317	-32.2301518737	-310.5331423787	35.0832915707	1697.9777580119	0.1576218723	0.0000000000	0.0000000000	0.0106666667	0.0100000000	1280	720	0.0000000000	-0.0000000000	16.9834016878	43.7964158396	0.9805874173	-0.0202426047	-0.1950347510	0.0206573996	0.9997866088	0.0000928094	
#timeindex 232
6.6413353555	7.0453023415	139.1722099018	0.1922832765	-0.0057172305	0.9813228087	1561.9522806937	-39.7004272688	-306.2848189287	43.4240380894	1697.7843708369	1.3827338869	0.0000000000	0.0000000000	0.0106666667	0.0100000000	1280	720	0.0000000000	-0.0000000000	16.9834016878	43.7964158396	0.9810063163	-0.0249344173	-0.1923665311	0.0255685162	0.9996727405	0.0008141678	
#timeindex 233
6.6595119574	7.0403735145	139.3623418341	0.1924988096	-0.0046289726	0.9812862890	1561.7738161423	-44.1796843934	-306.5813824990	47.7568803858	1697.6680356590	-1.3601370362	0.0000000000	0.0000000000	0.0106666667	0.0100000000	1280	720	0.0000000000	-0.0000000000	16.9834016878	43.7964158396	0.9808942291	-0.0277476783	-0.1925527920	0.0281197379	0.9996042412	-0.0008008625	
#timeindex 234
6.6774997882	7.0278746068	139.5402657078	0.1915319117	-0.0056477425	0.9814701370	1561.9552442969	-47.9416076374	-305.0882797921	52.0280706646	1697.5430070027	-0.3848819239	0.0000000000	0.0000000000	0.0106666667	0.0100000000	1280	720	0.0000000000	-0.0000000000	16.9834016878	43.7964158396	0.9810081776	-0.0301104077	-0.1916150277	0.0306346583	0.9995306230	-0.0002266224	
#timeindex 235
6.6926845876	7.0189502602	139.7099018911	0.1894040906	-0.0093423062	0.9818547814	1562.5621012671	-48.4355294243	-301.8859396678	53.7354315150	1697.4800024027	5.7856493050	0.0000000000	0.0000000000	0.0106666667	0.0100000000	1280	720	0.0000000000	-0.0000000000	16.9834016878	43.7964158396	0.9813893227	-0.0304206222	-0.1896037525	0.0316399697	0.9994935253	0.0034066493	
#timeindex 236
6.7121417294	7.0106636567	139.8840966500	0.1871170834	-0.0120861669	0.9822632649	1563.2273249942	-48.6517522697	-298.3869614917	54.8215292136	1697.4230123433	10.4425091357	0.0000000000	0.0000000000	0.0106666667	0.0100000000	1280	720	0.0000000000	-0.0000000000	16.9834016878	43.7964158396	0.9818071260	-0.0305564241	-0.1874061695	0.0322794751	0.9994599689	0.0061486558	
#timeindex 237
6.7240172586	7.0044274142	140.0647809836	0.1844306750	-0.0100299684	0.9827943457	1563.8730958984	-54.1285775148	-294.0280231834	59.8894418058	1697.2729842797	6.0828027741	0.0000000000	0.0000000000	0.0106666667	0.0100000000	1280	720	0.0000000000	0.0000000000	16.9834016878	43.7964158396	0.9822127115	-0.0339962220	-0.1846684764	0.0352635137	0.9993716309	0.0035816163	
#timeindex 238
6.7449788588	6.9989766475	140.2811139264	0.1811321287	-0.0021368336	0.9834564484	1564.7615620844	-58.9213982039	-288.3244076606	62.4669123179	1697.1729729677	-7.8175180598	0.0000000000	0.0000000000	0.0106666667	0.0100000000	1280	720	0.0000000000	0.0000000000	16.9834016878	43.7964158396	0.9827707253	-0.0370064211	-0.1810862397	0.0367811546	0.9993127432	-0.0046030343	
#timeindex 239
6.7630723568	7.0002529216	140.4747608252	0.1765967305	0.0051376692	0.9842698813	1566.1482850080	-58.9459319174	-280.6890946806	60.3483921996	1697.1534537749	-19.6864113996	0.0000000000	0.0000000000	0.0106666667	0.0100000000	1280	720	0.0000000000	0.0000000000	16.9834016878	43.7964158396	0.9836416764	-0.0370218298	-0.1762907729	0.0355337484	0.9993012501	-0.0115915597	
#timeindex 240
6.7795558096	7.0021037757	140.6551379569	0.1709543498	0.0084253061	0.9852429267	1567.8588298637	-56.1390042727	-271.5668301055	56.5573580744	1697.2238431700	-24.3273573949	0.0000000000	0.0000000000	0.0106666667	0.0100000000	1280	720	-0.0000000000	-0.0000000000	16.9834016878	43.7964158396	0.9847160084	-0.0352588990	-0.1705614051	0.0333015488	0.9993426961	-0.0143241960	
#timeindex 241
6.7858490223	7.0142471733	140.8224341374	0.1643555111	0.0078270329	0.9863701149	1569.6769009144	-54.9111562106	-261.1142145788	55.5935721793	1697.2778082947	-22.7315881076	0.0000000000	0.0000000000	0.0106666667	0.0100000000	1280	720	-0.0000000000	-0.0000000000	16.9834016878	43.7964158396	0.9858578737	-0.0344877316	-0.1639964914	0.0327340619	0.9993744713	-0.0133845907	
#timeindex 242
6.7945443469	7.0287508238	140.9757180521	0.1591878861	0.0042614070	0.9872391085	1570.8830854635	-58.0942144262	-253.0471012493	60.0261800128	1697.1938666338	-17.0048719102	0.0000000000	0.0000000000	0.0106666667	0.0100000000	1280	720	-0.0000000000	0.0000000000	16.9834016878	43.7964158396	0.9866154351	-0.0364868966	-0.1589298263	0.0353440265	0.9993250456	-0.0100126419	
#timeindex 243
6.8083071943	7.0485848046	141.1492441070	0.1579233311	0.0004580655	0.9874512705	1571.0276870726	-61.9587606830	-251.2261129376	65.1372575480	1697.0536002733	-11.2046585629	0.0000000000	0.0000000000	0.0106666667	0.0100000000	1280	720	-0.0000000000	-0.0000000000	16.9834016878	43.7964158396	0.9867062542	-0.0389140797	-0.1577861287	0.0383534811	0.9992424554	-0.0065974172	
#timeindex 244
6.8192936765	7.0696249671	141.3333440879	0.1595407484	-0.0033987071	0.9871854934	1570.5332797820	-63.0363570362	-254.0336123125	67.2980939498	1696.9988088992	-5.0336905507	0.0000000000	0.0000000000	0.0106666667	0.0100000000	1280	720	-0.0000000000	0.0000000000	16.9834016878	43.7964158396	0.9863957346	-0.0395908794	-0.1595494186	0.0396258036	0.9992101936	-0.0029638883	
#timeindex 245
6.8337813459	7.0881718428	141.5153827523	0.1629294777	-0.0083084648	0.9866027340	1569.6618560096	-61.4892731994	-259.7348041092	67.0117146844	1697.0145435227	3.2246027205	0.0000000000	0.0000000000	0.0106666667	0.0100000000	1280	720	-0.0000000000	0.0000000000	16.9834016878	43.7964158396	0.9858484246	-0.0386192114	-0.1631301331	0.0394571806	0.9992194583	0.0018986789	
#timeindex 246
6.8436534721	7.0999824979	141.7062038782	0.1672150230	-0.0128101673	0.9858372258	1568.5091160025	-60.5064101347	-266.8324731840	67.2721494680	1696.9739452237	10.6403022920	0.0000000000	0.0000000000	0.0106666667	0.0100000000	1280	720	-0.0000000000	0.0000000000	16.9834016878	43.7964158396	0.9851244298	-0.0380019103	-0.1675879249	0.0396105272	0.9991955536	0.0062651184	
#timeindex 247
6.8514733443	7.1188044003	141.8944410125	0.1710221399	-0.0162730083	0.9851327915	1567.3647349092	-62.0656534550	-273.1246671760	69.9599684393	1696.8242790683	15.8838809888	0.0000000000	0.0000000000	0.0106666667	0.0100000000	1280	720	-0.0000000000	0.0000000000	16.9834016878	43.7964158396	0.9844056850	-0.0389812152	-0.1715398268	0.0411931424	0.9991074287	0.0093525910	
#timeindex 248
6.8577154595	7.1177307290	142.0938766451	0.1735636353	-0.0172150200	0.9846721828	1566.4658012367	-66.2326139593	-277.2716642569	74.6566931123	1696.6182163326	16.5025778870	0.0000000000	0.0000000000	0.0106666667	0.0100000000	1280	720	0.0000000000	0.0000000000	16.9834016878	43.7964158396	0.9838410970	-0.0415983340	-0.1741444072	0.0439586218	0.9989860968	0.0097168860	
#timeindex 249
6.8600135493	7.1140418554	142.3026905102	0.1759538158	-0.0131084276	0.9843111418	1565.9434267064	-63.7817900287	-280.7748368564	70.8924193997	1696.8308973163	9.9247004706	0.0000000000	0.0000000000	0.0106666667	0.0100000000	1280	720	-0.0000000000	-0.0000000000	16.9834016878	43.7964158396	0.9835130122	-0.0400590592	-0.1763446245	0.0417421790	0.9991113256	0.0058437648	
#timeindex 250
6.8681455185	7.1112940869	142.5177999144	0.1769633126	-0.0057652847	0.9842005626	1565.8200992306	-61.8028796696	-281.9029306444	66.6151248978	1697.0319990267	-2.0367399243	0.0000000000	0.0000000000	0.0106666667	0.0100000000	1280	720	-0.0000000000	-0.0000000000	16.9834016878	43.7964158396	0.9834355546	-0.0388161764	-0.1770531398	0.0392236644	0.9992297363	-0.0011992532	
#timeindex 251
6.8772077289	7.1041094617	142.7185982139	0.1751075362	-0.0009240762	0.9845488799	1566.2327055072	-66.0644518103	-278.6252712920	69.6545632090	1696.8768433104	-10.7958027038	0.0000000000	0.0000000000	0.0106666667	0.0100000000	1280	720	-0.0000000000	-0.0000000000	16.9834016878	43.7964158396	0.9836946979	-0.0414927174	-0.1749945593	0.0410133167	0.9991383790	-0.0063566787	
#timeindex 252
6.8855127950	7.0913585024	142.9028039257	0.1746726575	0.0001337592	0.9846265510	1566.4863949766	-63.0967892382	-277.8859675064	66.2289110955	1697.0060550644	-11.9795369197	0.0000000000	0.0000000000	0.0106666667	0.0100000000	1280	720	0.0000000000	0.0000000000	16.9834016878	43.7964158396	0.9838540311	-0.0396288347	-0.1745302291	0.0389962578	0.9992144602	-0.0070536734	
#timeindex 253
6.8937716507	7.0804382695	143.0789042949	0.1758892969	-0.0011577173	0.9844092721	1566.3222008080	-57.9224699790	-279.9306916424	61.1663969299	1697.2148373915	-8.9328897712	0.0000000000	0.0000000000	0.0106666667	0.0100000000	1280	720	0.0000000000	0.0000000000	16.9834016878	43.7964158396	0.9837509067	-0.0363790300	-0.1758144471	0.0360153979	0.9993373934	-0.0052597765	
#timeindex 254
6.9082446327	7.0734895541	143.2607695577	0.1767685884	-0.0018156737	0.9842507656	1566.1692847626	-54.9548183581	-281.3808465428	58.2402323794	1697.3254533954	-7.3286754275	0.0000000000	0.0000000000	0.0106666667	0.0100000000	1280	720	0.0000000000	0.0000000000	16.9834016878	43.7964158396	0.9836548656	-0.0345151543	-0.1767252375	0.0342924424	0.9994025252	-0.0043151988	
#timeindex 255
6.9200315038	7.0683413647	143.4489627072	0.1777118184	0.0011190721	0.9840819363	1566.0820994827	-50.1726840214	-282.7560801357	52.3281147617	1697.4956821065	-11.3800936005	0.0000000000	0.0000000000	0.0106666667	0.0100000000	1280	720	0.0000000000	0.0000000000	16.9834016878	43.7964158396	0.9836001076	-0.0315116669	-0.1775889725	0.0308113273	0.9995027576	-0.0067007151	
#timeindex 256
6.9353461178	7.0759004806	143.6456360300	0.1779408447	0.0065945443	0.9840190891	1566.2311621595	-44.2044669133	-282.9264094798	44.4077530917	1697.6485609082	-19.4073183817	0.0000000000	0.0000000000	0.0106666667	0.0100000000	1280	720	0.0000000000	-0.0000000000	16.9834016878	43.7964158396	0.9836937286	-0.0277632433	-0.1776959502	0.0261477376	0.9995927742	-0.0114272269	
#timeindex 257
6.9520316950	7.0815703385	143.8412459585	0.1770525169	0.0110878096	0.9841389469	1566.6115834547	-40.3785162782	-281.3879233453	39.0593010789	1697.6895082097	-26.1540361906	0.0000000000	0.0000000000	0.0106666667	0.0100000000	1280	720	0.0000000000	0.0000000000	16.9834016878	43.7964158396	0.9839326575	-0.0253603007	-0.1767296822	0.0229985145	0.9996168844	-0.0153997631	
#timeindex 258
6.9675427955	7.0944062017	144.0167782704	0.1774019021	0.0127138270	0.9840563621	1566.6460097232	-34.4505462694	-281.9838319406	32.3372646064	1697.8052705438	-27.7649694114	0.0000000000	0.0000000000	0.0106666667	0.0100000000	1280	720	0.0000000000	0.0000000000	16.9834016878	43.7964158396	0.9839542795	-0.0216371549	-0.1771039510	0.0190405110	0.9996850465	-0.0163482970	
#timeindex 259
6.9849050248	7.1101768438	144.2034711152	0.1790816588	0.0110919271	0.9837716852	1566.2979679015	-25.7457183502	-284.8320121231	23.6464776688	1698.0136326930	-23.4494387471	0.0000000000	0.0000000000	0.0106666667	0.0100000000	1280	720	0.0000000000	0.0000000000	16.9834016878	43.7964158396	0.9837356868	-0.0161699641	-0.1788927910	0.0139232870	0.9998077322	-0.0138072685	
#timeindex 260
6.9977337281	7.1294878408	144.3906342225	0.1812738295	0.0081102398	0.9833992184	1565.7159078572	-20.3362710570	-288.4468293431	18.8365867862	1698.1457721492	-17.4770828553	0.0000000000	0.0000000000	0.0106666667	0.0100000000	1280	720	0.0000000000	-0.0000000000	16.9834016878	43.7964158396	0.9833701158	-0.0127724839	-0.1811631283	0.0110911743	0.9998855373	-0.0102906845	
#timeindex 261
7.0129149572	7.1509150606	144.5596620659	0.1841058496	0.0042924776	0.9828970499	1564.8877152710	-18.3462032863	-293.0380467019	17.8928744799	1698.2117732093	-10.7678814595	0.0000000000	0.0000000000	0.0106666667	0.0100000000	1280	720	0.0000000000	-0.0000000000	16.9834016878	43.7964158396	0.9828499576	-0.0115225936	-0.1840467076	0.0105355068	0.9999243994	-0.0063402383	
#timeindex 262
7.0334824328	7.1673150404	144.7399949266	0.1860875877	-0.0019960405	0.9825311321	1564.2378622842	-21.1093407477	-296.3034716734	22.7541527371	1698.1875156951	-0.8596311253	0.0000000000	0.0000000000	0.0106666667	0.0100000000	1280	720	-0.0000000000	-0.0000000000	16.9834016878	43.7964158396	0.9824418083	-0.0132580213	-0.1860976042	0.0133978770	0.9999101163	-0.0005061596	
#timeindex 263
7.0557590439	7.1794168628	144.9236428101	0.1874182874	-0.0070594278	0.9822548295	1563.8670180915	-17.0390554775	-298.5147596180	20.1003071316	1698.2005932726	8.3696808130	0.0000000000	0.0000000000	0.0106666667	0.0100000000	1280	720	-0.0000000000	-0.0000000000	16.9834016878	43.7964158396	0.9822088943	-0.0107016208	-0.1874864350	0.0118352657	0.9999178165	0.0049281534	
#timeindex 264
7.0792099006	7.1879479595	145.1069614899	0.1887476115	-0.0098072129	0.9819766584	1563.4776700382	-14.7838635094	-300.6666826694	18.6305184757	1698.1852759372	13.3791354904	0.0000000000	0.0000000000	0.0106666667	0.0100000000	1280	720	0.0000000000	0.0000000000	16.9834016878	43.7964158396	0.9819643587	-0.0092852155	-0.1888379808	0.0109698392	0.9999087975	0.0078777713	
#timeindex 265
7.1026091232	7.1953418475	145.2992421503	0.1885055198	-0.0120593666	0.9819980859	1563.4454867405	-22.0172064315	-300.3912349047	26.9262747600	1698.0542733330	15.6840504418	0.0000000000	0.0000000000	0.0106666667	0.0100000000	1280	720	0.0000000000	0.0000000000	16.9834016878	43.7964158396	0.9819441455	-0.0138282192	-0.1886649819	0.0158544650	0.9998316618	0.0092349287	
#timeindex 266
7.1307022377	7.1950422035	145.4762493059	0.1848665576	-0.0155495500	0.9826406095	1564.3741639177	-30.2468634305	-294.7881339458	36.5926604311	1697.8283193774	19.9825928675	0.0000000000	0.0000000000	0.0106666667	0.0100000000	1280	720	0.0000000000	0.0000000000	16.9834016878	43.7964158396	0.9825274144	-0.0189969722	-0.1851458748	0.0215461314	0.9996986179	0.0117659543	
#timeindex 267
7.1542068531	7.1941401401	145.6653449647	0.1828288013	-0.0161884147	0.9830114774	1564.8697048219	-34.9324466620	-291.6229972016	41.6639040194	1697.7087610091	20.2091758866	0.0000000000	0.0000000000	0.0106666667	0.0100000000	1280	720	0.0000000000	0.0000000000	16.9834016878	43.7964158396	0.9828386459	-0.0219398193	-0.1831579657	0.0245321313	0.9996282207	0.0118993687	
#timeindex 268
7.1800218254	7.1864639629	145.8602586397	0.1824926507	-0.0139020073	0.9831089292	1564.8661964823	-39.6110370771	-291.0432858604	45.8539201461	1697.6503375395	15.4944620533	0.0000000000	0.0000000000	0.0106666667	0.0100000000	1280	720	0.0000000000	0.0000000000	16.9834016878	43.7964158396	0.9828364425	-0.0248782745	-0.1827938697	0.0269992555	0.9995938203	0.0091232972	
#timeindex 269
7.2067873102	7.1799488916	146.0517038515	0.1807295846	-0.0146268957	0.9834240546	1565.2660284220	-43.6215645964	-288.3068864352	50.2565660473	1697.5209045678	16.0120273354	0.0000000000	0.0000000000	0.0106666667	0.0100000000	1280	720	0.0000000000	0.0000000000	16.9834016878	43.7964158396	0.9830875626	-0.0273971433	-0.1810752352	0.0295915783	0.9995176089	0.0094280449	
#timeindex 270
7.2310470913	7.1712088801	146.2276991462	0.1787740311	-0.0166636279	0.9837490378	1565.7022723679	-47.3592972898	-285.3330206231	54.7673028536	1697.3527873925	18.7985787757	0.0000000000	0.0000000000	0.0106666667	0.0100000000	1280	720	-0.0000000000	0.0000000000	16.9834016878	43.7964158396	0.9833615518	-0.0297446794	-0.1792074565	0.0322475461	0.9994186198	0.0110687948	
#timeindex 271
7.2585811391	7.1658598018	146.4245049923	0.1769061652	-0.0160710624	0.9840965042	1566.0155522606	-54.1092060527	-282.3985221177	61.6395997930	1697.1397015287	16.6349670158	0.0000000000	0.0000000000	0.0106666667	0.0100000000	1280	720	0.0000000000	0.0000000000	16.9834016878	43.7964158396	0.9835583117	-0.0339840554	-0.1773644031	0.0362940246	0.9992931526	0.0097948381	
#timeindex 272
7.2776891699	7.1619947691	146.6207234885	0.1757667345	-0.0113683175	0.9843662004	1566.0766423749	-62.3375733932	-280.3558783887	68.8535198827	1696.9281612441	7.3032370528	0.0000000000	0.0000000000	0.0106666667	0.0100000000	1280	720	0.0000000000	0.0000000000	16.9834016878	43.7964158396	0.9835966802	-0.0391519984	-0.1760814917	0.0405416542	0.9991685956	0.0043002204	
#timeindex 273
7.2934905192	7.1632146467	146.8288912522	0.1749111175	-0.0044465586	0.9845741867	1566.1359783893	-68.6795529714	-278.5366359995	73.4492207810	1696.7426255330	-5.3854954268	0.0000000000	0.0000000000	0.0106666667	0.0100000000	1280	720	0.0000000000	0.0000000000	16.9834016878	43.7964158396	0.9836339470	-0.0431351688	-0.1749388906	0.0432476498	0.9990593503	-0.0031710346	
#timeindex 274
7.3159916489	7.1686447038	147.0263598108	0.1733557449	-0.0005030113	0.9848591436	1566.4200378501	-73.2538554934	-275.7600026704	77.1023357571	1696.5415228187	-12.7051197499	0.0000000000	0.0000000000	0.0106666667	0.0100000000	1280	720	0.0000000000	0.0000000000	16.9834016878	43.7964158396	0.9838123546	-0.0460081245	-0.1731949866	0.0453986411	0.9989409389	-0.0074809040	
#timeindex 275
7.3412721722	7.1832082034	147.2128890170	0.1707063697	-0.0013675137	0.9853209960	1567.0001295910	-76.3675674739	-271.5879781869	80.6591658009	1696.3839213963	-11.6197717486	0.0000000000	0.0000000000	0.0106666667	0.0100000000	1280	720	0.0000000000	0.0000000000	16.9834016878	43.7964158396	0.9841766895	-0.0479637355	-0.1705746874	0.0474929389	0.9988481416	-0.0068418400	
#timeindex 276
7.3683888641	7.1968609144	147.4075407865	0.1666938374	-0.0048473016	0.9859967892	1567.9478526691	-78.4184590329	-265.4647207995	83.8476121376	1696.2590734042	-5.8363282687	0.0000000000	0.0000000000	0.0106666667	0.0100000000	1280	720	0.0000000000	0.0000000000	16.9834016878	43.7964158396	0.9847719204	-0.0492518271	-0.1667288886	0.0493703286	0.9987746298	-0.0034364896	
#timeindex 277
7.3813035386	7.2201838163	147.5792110899	0.1644143617	-0.0070469170	0.9863661889	1568.2772602912	-83.3094006382	-262.0065266645	89.6212418855	1695.9715202528	-2.8221249793	0.0000000000	0.0000000000	0.0106666667	0.0100000000	1280	720	0.0000000000	0.0000000000	16.9834016878	43.7964158396	0.9849788095	-0.0523236524	-0.1645569207	0.0527699006	0.9986053156	-0.0016616959	
#timeindex 278
7.3981746296	7.2459006758	147.7640865388	0.1641056798	-0.0083047911	0.9864078043	1568.1932309065	-86.0601246587	-261.6201194070	92.8672842977	1695.7988150418	-1.1727340044	0.0000000000	0.0000000000	0.0106666667	0.0100000000	1280	720	0.0000000000	0.0000000000	16.9834016878	43.7964158396	0.9849260337	-0.0540512837	-0.1643142321	0.0546812035	0.9985036250	-0.0006905177	
#timeindex 279
7.4157135296	7.2665965372	147.9572138845	0.1649726303	-0.0118193212	0.9862273242	1567.9799076640	-84.8070630074	-263.3025116133	92.5345064398	1695.8104923356	4.8443882411	0.0000000000	0.0000000000	0.0106666667	0.0100000000	1280	720	0.0000000000	0.0000000000	16.9834016878	43.7964158396	0.9847920530	-0.0532642805	-0.1653708824	0.0544852605	0.9985105007	0.0028524252	
#timeindex 280
7.4344503080	7.2882847169	148.1572465986	0.1675584345	-0.0167095807	0.9857205288	1567.2727007718	-83.6863426147	-267.8326321997	92.7644980173	1695.7551914410	12.9771916632	0.0000000000	0.0000000000	0.0106666667	0.0100000000	1280	720	-0.0000000000	0.0000000000	16.9834016878	43.7964158396	0.9843478817	-0.0525603962	-0.1682160890	0.0546206818	0.9984779390	0.0076411027	
#timeindex 281
7.4550892870	7.3058459827	148.3539644833	0.1713343120	-0.0213200332	0.9849822383	1566.2085114385	-82.8846626777	-274.2306926411	93.3189632316	1695.6508717434	20.4700061629	0.0000000000	0.0000000000	0.0106666667	0.0100000000	1280	720	-0.0000000000	0.0000000000	16.9834016878	43.7964158396	0.9836795024	-0.0520568897	-0.1722344818	0.0549471566	0.9984165145	0.0120529482	
#timeindex 282
7.4675682442	7.3135915072	148.5455425259	0.1752617639	-0.0262678501	0.9841713846	1565.0633378984	-82.1767738656	-280.9006365232	94.1383308044	1695.4898060898	28.4889630211	0.0000000000	0.0000000000	0.0106666667	0.0100000000	1280	720	0.0000000000	0.0000000000	16.9834016878	43.7964158396	0.9829602599	-0.0516122901	-0.1764236348	0.0554296086	0.9983216774	0.0167745918	
#timeindex 283
7.4821060517	7.3184324583	148.7396032129	0.1777383627	-0.0289816323	0.9836509236	1564.2986262027	-82.3345862566	-285.0829096282	95.2007038644	1695.3535551776	32.7487072325	0.0000000000	0.0000000000	0.0106666667	0.0100000000	1280	720	-0.0000000000	0.0000000000	16.9834016878	43.7964158396	0.9824799719	-0.0517114064	-0.1790503708	0.0560551447	0.9982414515	0.0192827726	
#timeindex 284
7.4882388838	7.3172585103	148.9391815212	0.1798094180	-0.0277281512	0.9833105933	1563.7560528988	-81.6055863359	-288.2515857666	94.1187424607	1695.4541247792	30.5990519791	0.0000000000	0.0000000000	0.0106666667	0.0100000000	1280	720	0.0000000000	0.0000000000	16.9834016878	43.7964158396	0.9821392010	-0.0512535476	-0.1810405028	0.0554180748	0.9983006679	0.0180170337	
#timeindex 285
7.5022481469	7.3124645456	149.1531505312	0.1815077698	-0.0232171359	0.9831154022	1563.1802192475	-84.2901234110	-290.5928743873	95.5878963518	1695.5001755307	22.3928055756	0.0000000000	0.0000000000	0.0106666667	0.0100000000	1280	720	0.0000000000	0.0000000000	16.9834016878	43.7964158396	0.9817775405	-0.0529396093	-0.1825109824	0.0562831276	0.9983277830	0.0131851121	
#timeindex 286
7.5153246751	7.3040862382	149.3597747095	0.1845733641	-0.0182489356	0.9826493014	1562.3280955736	-84.6793969829	-295.0284103333	94.5003783876	1695.6533311329	13.7400144626	0.0000000000	0.0000000000	0.0106666667	0.0100000000	1280	720	0.0000000000	0.0000000000	16.9834016878	43.7964158396	0.9812423521	-0.0531840981	-0.1852967838	0.0556427859	0.9984179626	0.0080902605	
#timeindex 287
7.5321918374	7.2938742675	149.5730219929	0.1893101124	-0.0142783000	0.9818135319	1561.2157348063	-79.8034839033	-302.1891373725	88.1780133996	1696.0322072215	7.6628268477	0.0000000000	0.0000000000	0.0106666667	0.0100000000	1280	720	0.0000000000	0.0000000000	16.9834016878	43.7964158396	0.9805437182	-0.0501217116	-0.1897941801	0.0519201130	0.9986410487	0.0045119505	
#timeindex 288
7.5459276573	7.2884380555	149.7789272782	0.1936252026	-0.0114027392	0.9810093060	1560.0857544438	-76.4925304113	-308.8086348674	83.7985583951	1696.2685629462	3.1769272209	0.0000000000	0.0000000000	0.0106666667	0.0100000000	1280	720	-0.0000000000	0.0000000000	16.9834016878	43.7964158396	0.9798340179	-0.0480422202	-0.1939516495	0.0493414452	0.9987802174	0.0018706071	
#timeindex 289
7.5596325325	7.2868524890	149.9805068787	0.1966204482	-0.0078122726	0.9804485544	1559.3190685426	-73.8307455530	-313.2961935397	79.8237898866	1696.4614021721	-2.4904625300	0.0000000000	0.0000000000	0.0106666667	0.0100000000	1280	720	-0.0000000000	0.0000000000	16.9834016878	43.7964158396	0.9793524900	-0.0463704485	-0.1967701245	0.0470010610	0.9988937631	-0.0014664097	
#timeindex 290
7.5844875705	7.2884692047	150.1927651512	0.1978727849	-0.0032918984	0.9802221811	1559.0438504595	-72.5510474263	-314.9604090321	76.9631611863	1696.5668873231	-9.8385748044	0.0000000000	0.0000000000	0.0106666667	0.0100000000	1280	720	-0.0000000000	0.0000000000	16.9834016878	43.7964158396	0.9791796353	-0.0455667159	-0.1978153587	0.0453166937	0.9989558738	-0.0057930531	
#timeindex 291
7.6047951669	7.2987910388	150.3982743513	0.1993214609	0.0004596562	0.9799340508	1558.5445476578	-74.4683402416	-316.9776027794	77.6835857126	1696.4813982089	-16.5968351530	0.0000000000	0.0000000000	0.0106666667	0.0100000000	1280	720	-0.0000000000	-0.0000000000	16.9834016878	43.7964158396	0.9788660411	-0.0467708989	-0.1990822859	0.0457408870	0.9989055369	-0.0097723857	
#timeindex 292
7.6266108551	7.3146512510	150.6026221832	0.2013927328	0.0022295061	0.9795080380	1557.7834576412	-76.9339730683	-320.1145174513	79.6199975980	1696.3521660626	-20.2314995091	0.0000000000	0.0000000000	0.0106666667	0.0100000000	1280	720	-0.0000000000	0.0000000000	16.9834016878	43.7964158396	0.9783880277	-0.0483194746	-0.2010524697	0.0468810660	0.9988294437	-0.0119125131	
#timeindex 293
7.6478875812	7.3326296916	150.7975796184	0.2037228928	0.0019720532	0.9790266053	1557.1408951204	-74.1674656766	-323.8716739304	76.7714452916	1696.4932681528	-19.3924004500	0.0000000000	0.0000000000	0.0106666667	0.0100000000	1280	720	0.0000000000	0.0000000000	16.9834016878	43.7964158396	0.9779844572	-0.0465819303	-0.2034122052	0.0452038094	0.9989125261	-0.0114184430	
#timeindex 294
7.6675521042	7.3547310934	150.9823542716	0.2070880965	0.0000212223	0.9783222986	1555.9344086182	-75.3379988648	-329.3535234377	78.6110448976	1696.4378893649	-16.6769314391	0.0000000000	0.0000000000	0.0106666667	0.0100000000	1280	720	0.0000000000	0.0000000000	16.9834016878	43.7964158396	0.9772267062	-0.0473171003	-0.2068551586	0.0462869844	0.9988799185	-0.0098195472	
#timeindex 295
7.6865288477	7.3807567236	151.1748102435	0.2094317464	-0.0033475406	0.9778175380	1555.0093383369	-76.9757926216	-333.3198560408	81.4763539068	1696.3447064599	-11.6434322471	0.0000000000	0.0000000000	0.0106666667	0.0100000000	1280	720	-0.0000000000	0.0000000000	16.9834016878	43.7964158396	0.9766457027	-0.0483457399	-0.2093462701	0.0479741075	0.9988250514	-0.0068557716	
#timeindex 296
7.7189311898	7.4018444968	151.3563816144	0.2106509201	-0.0079680846	0.9775288740	1554.5845827631	-75.5545595437	-335.6184216687	81.6330661313	1696.3729557825	-3.7638143885	0.0000000000	0.0000000000	0.0106666667	0.0100000000	1280	720	-0.0000000000	-0.0000000000	16.9834016878	43.7964158396	0.9763789289	-0.0474531143	-0.2107899169	0.0480663813	0.9988416849	-0.0022161723	
#timeindex 297
7.7439734946	7.4259219106	151.5513427969	0.2108589157	-0.0121470129	0.9774410303	1554.4638857752	-75.1343932329	-336.2711586950	82.6924040880	1696.3227242791	3.2419585761	0.0000000000	0.0000000000	0.0106666667	0.0100000000	1280	720	-0.0000000000	-0.0000000000	16.9834016878	43.7964158396	0.9763031235	-0.0471892229	-0.2111998777	0.0486901303	0.9988121081	0.0019088983	
#timeindex 298
7.7699764422	7.4434358024	151.7490217401	0.2106513068	-0.0136861147	0.9774654558	1554.7748641856	-69.5275168361	-336.0394136037	77.3971412219	1696.5609203679	7.0749491906	0.0000000000	0.0000000000	0.0106666667	0.0100000000	1280	720	-0.0000000000	-0.0000000000	16.9834016878	43.7964158396	0.9764984379	-0.0436677445	-0.2110543269	0.0455722255	0.9989523604	0.0041658022	
#timeindex 299
7.7915572545	7.4522700327	151.9385392774	0.2093515119	-0.0154453047	0.9777184600	1555.2769030151	-67.6745454855	-334.0888388390	76.0818734023	1696.6026048173	10.5108877699	0.0000000000	0.0000000000	0.0106666667	0.0100000000	1280	720	-0.0000000000	-0.0000000000	16.9834016878	43.7964158396	0.9768137505	-0.0425039596	-0.2098292407	0.0447977824	0.9989769046	0.0061889178	
#timeindex 300
7.8074300202	7.4554654441	152.1154295672	0.2068027105	-0.0183237630	0.9782110604	1555.8884200168	-72.1618650447	-330.2806853070	81.7509541550	1696.3095489301	14.4922254434	0.0000000000	0.0000000000	0.0106666667	0.0100000000	1280	720	0.0000000000	0.0000000000	16.9834016878	43.7964158396	0.9771978224	-0.0453222843	-0.2074374758	0.0481357950	0.9988043503	0.0085331700	
#timeindex 301
7.8329384515	7.4535809034	152.3083480179	0.2072482774	-0.0193424484	0.9780971430	1555.1933627729	-82.3970900616	-331.1582179751	92.7976204180	1695.7462988950	13.8715652943	0.0000000000	0.0000000000	0.0106666667	0.0100000000	1280	720	-0.0000000000	0.0000000000	16.9834016878	43.7964158396	0.9767612819	-0.0517506628	-0.2079886227	0.0546401846	0.9984727030	0.0081677190	
#timeindex 302
7.8563590958	7.4491751332	152.5130197235	0.2101263379	-0.0180069203	0.9775084005	1553.4819359829	-95.3142119654	-335.6940824142	105.8296100842	1695.0184646000	8.4750923138	0.0000000000	0.0000000000	0.0106666667	0.0100000000	1280	720	-0.0000000000	0.0000000000	16.9834016878	43.7964158396	0.9756863960	-0.0598634447	-0.2108374367	0.0623135530	0.9980441467	0.0049902207	
#timeindex 303
7.8793525090	7.4383338610	152.7052891336	0.2122380987	-0.0185065343	0.9770427307	1552.0537627036	-105.7775779940	-339.1484381020	116.9340542493	1694.2966039650	6.6913111192	0.0000000000	0.0000000000	0.0106666667	0.0100000000	1280	720	-0.0000000000	0.0000000000	16.9834016878	43.7964158396	0.9747894114	-0.0664351104	-0.2130069939	0.0688519629	0.9976191078	0.0039399122	
#timeindex 304
7.8955213927	7.4301715220	152.8903409359	0.2133245348	-0.0202708051	0.9767710772	1551.3590897044	-109.6574593340	-341.0889294593	121.6260073567	1693.9576815230	8.5916493590	0.0000000000	0.0000000000	0.0106666667	0.0100000000	1280	720	0.0000000000	0.0000000000	16.9834016878	43.7964158396	0.9743531122	-0.0688719249	-0.2142257471	0.0716146327	0.9974195468	0.0050588507	
#timeindex 305
7.9101757648	7.4191541278	153.0674009226	0.2131170185	-0.0205173502	0.9768112278	1551.2535855807	-112.0237549704	-340.7996962162	124.1795929083	1693.7729437192	8.4836740299	0.0000000000	0.0000000000	0.0106666667	0.0100000000	1280	720	0.0000000000	0.0000000000	16.9834016878	43.7964158396	0.9742868488	-0.0703581105	-0.2140440900	0.0731182099	0.9973107713	0.0049952737	
#timeindex 306
7.9348460723	7.4117893016	153.2697491659	0.2129898110	-0.0172333974	0.9769024263	1551.1134832122	-115.6581186777	-340.2228728012	126.7732188893	1693.6005658986	2.2367511032	0.0000000000	0.0000000000	0.0106666667	0.0100000000	1280	720	0.0000000000	0.0000000000	16.9834016878	43.7964158396	0.9741988556	-0.0726407243	-0.2136818079	0.0746453633	0.9972092735	0.0013170218	
#timeindex 307
