# Text export 
# created by voodoo camera tracker - www.digilab.uni-hannover.de
# Creation date: Tue Jun 18 15:21:37 2019
# The camera (one line per frame) 
#
# Description of the CAHV camera model:
# -------------
# (Cx, Cy, Cz)    : CameraPosition [mm]
# (Ax, Ay, Az)    : RotationAxis2  [unit vector]
# (Hx, Hy, Hz)    : RotationAxis0 [pel] (including FocalLength, PixelSizeX, and Principal Point offset) 
# (Vx, Vy, Vz)    : RotationAxis1 [pel] (including FocalLength, PixelSizeY, and Principal Point offset) 
# (K3, K5)        : Radialdistortion;	K3 [1/(mm)^2]	K5 [1/(mm)^4]
# (sx, sy)        : PixelSize	[mm/pel]
# (Width, Height) : ImageSize	[pel]
# -------------
# (ppx, ppy)      : Principal Point offset [pel]
# f               : Focal Length [mm]
# fov             : Horizontal Field of View [degree] = (2*atan(0.5*Width*sx/f)*180/PI;
# (H0x, H0y, H0z) : RotationAxis0 [unit vector]
# (V0x, V0y, V0z) : RotationAxis1 [unit vector]
# -------------
# (x, y)          : image coordinates [pel]
# (X, Y, Z)       : 3D coordinates [mm]
# -------------
# Projection of 3D coordinates in the camera image:
#  [ x' ] =  [ Hx Hy Hz ] [ 1 0 0 -Cx] [ X ]
#  [ y' ] =  [ Vx Vy Vz ] [ 0 1 0 -Cy] [ Y ]
#  [ z' ] =  [ Ax Ay Az ] [ 0 0 1 -Cz] [ Z ]
#                                      [ 1 ]
# or 
#  [ x' ] =  [f/sx 0    ppx] [ H0x H0y H0z ] [ 1 0 0 -Cx] [ X ]
#  [ y' ] =  [0    f/sy ppy] [ V0x V0y V0z ] [ 0 1 0 -Cy] [ Y ]
#  [ z' ] =  [0    0    1  ] [ Ax  Ay  Az  ] [ 0 0 1 -Cz] [ Z ]
#                                                         [ 1 ]
# then x = x'/z' and y = y'/z' , if the origin of the image coordinates is in the center of the image
# or x = x'/z' + 0.5*(Width-1) and y = y'/z' + 0.5*(Height-1) , if the origin of the image coordinates is in the upper left corner
# -------------
# Cx Cy Cz Ax Ay Az Hx Hy Hz Vx Vy Vz K3 K5 sx sy Width Height ppx ppy f fov H0x H0y H0z V0x V0y V0z
#
#timeindex 1
-0.0071862033	0.0051277818	0.0440844828	-0.0163845579	-0.0191811369	0.9996817645	975.7982225759	-0.2835130401	15.9876722344	-0.0247881739	1040.7996158656	19.9696687947	0.0000000000	0.0000000000	0.0106666667	0.0100000000	640	360	0.0000000000	0.0000000000	10.4099117608	36.3078718722	0.9998657638	-0.0002905057	0.0163819996	-0.0000238121	0.9998159829	0.0191833219	
#timeindex 2
-0.0340812051	0.0024868159	0.1400633076	-0.0148187914	-0.0202199495	0.9996857291	975.8220430134	-0.0791707894	14.4634479486	-0.2275245635	1040.7783481718	21.0477286539	0.0000000000	0.0000000000	0.0106666667	0.0100000000	640	360	0.0000000000	-0.0000000000	10.4099117608	36.3078718722	0.9998901718	-0.0000811235	0.0148201812	-0.0002185653	0.9997955526	0.0202189309	
#timeindex 3
-0.0647568405	-0.0013694848	0.2391445349	-0.0157365016	-0.0245844421	0.9995738931	975.8018748030	3.1853306890	15.4405966433	-3.8011433082	1040.6709971707	25.5353799560	0.0000000000	0.0000000000	0.0106666667	0.0100000000	640	360	0.0000000000	0.0000000000	10.4099117608	36.3078718722	0.9998695061	0.0032638952	0.0158214307	-0.0036514654	0.9996924288	0.0245298717	
#timeindex 4
-0.0972587387	-0.0072958260	0.3369890675	-0.0160442641	-0.0275543298	0.9994915410	975.7496560204	9.8270825981	15.9340656784	-10.9452143262	1040.5431228483	28.5103568650	0.0000000000	0.0000000000	0.0106666667	0.0100000000	640	360	0.0000000000	0.0000000000	10.4099117608	36.3078718722	0.9998159994	0.0100694623	0.0163270709	-0.0105142239	0.9995695898	0.0273877027	
#timeindex 5
-0.1338357732	-0.0121965193	0.4325326886	-0.0112279514	-0.0285215549	0.9995301166	975.6976293414	17.8999785976	11.4710108227	-19.4333213443	1040.3924919333	29.4692623343	0.0000000000	0.0000000000	0.0106666667	0.0100000000	640	360	0.0000000000	-0.0000000000	10.4099117608	36.3078718722	0.9997626895	0.0183414720	0.0117539372	-0.0186680942	0.9994248903	0.0283088493	
#timeindex 6
-0.1681700907	-0.0194588057	0.5293885654	-0.0064461532	-0.0296504174	0.9995395439	975.5665168751	25.6532691125	7.0525287213	-27.5739384845	1040.1736245576	30.6779621780	0.0000000000	0.0000000000	0.0106666667	0.0100000000	640	360	0.0000000000	-0.0000000000	10.4099117608	36.3078718722	0.9996283432	0.0262859933	0.0072264756	-0.0264881577	0.9992146413	0.0294699541	
#timeindex 7
-0.2049962717	-0.0280051151	0.6181310868	-0.0030927441	-0.0317085788	0.9994923716	975.6119550361	24.5914207061	3.7990056110	-26.3460250370	1040.1370198348	32.9164944372	0.0000000000	0.0000000000	0.0106666667	0.0100000000	640	360	0.0000000000	0.0000000000	10.4099117608	36.3078718722	0.9996749021	0.0251979549	0.0038927061	-0.0253085959	0.9991794779	0.0316203395	
#timeindex 8
-0.2348522433	-0.0409789664	0.7236910506	0.0012808540	-0.0317175727	0.9994960505	975.6884535892	21.6698441548	-0.5626832051	-23.0838151495	1040.2106417218	33.0391737022	0.0000000000	0.0000000000	0.0106666667	0.0100000000	640	360	0.0000000000	0.0000000000	10.4099117608	36.3078718722	0.9997532875	0.0222043193	-0.0005765615	-0.0221748423	0.9992502008	0.0317381880	
#timeindex 9
-0.2680661677	-0.0566488203	0.8221452568	0.0084551880	-0.0302911149	0.9995053567	975.4562678425	29.4750678179	-7.3584733013	-31.1867646019	1040.0383810706	31.7833334615	0.0000000000	0.0000000000	0.0106666667	0.0100000000	640	360	0.0000000000	0.0000000000	10.4099117608	36.3078718722	0.9995153750	0.0302020546	-0.0075399661	-0.0299587214	0.9990847233	0.0305317991	
#timeindex 10
-0.3032713380	-0.0715665087	0.9086609829	0.0168146897	-0.0293798425	0.9994268813	974.8442421365	43.4491682046	-15.1238414818	-45.8452592989	1039.5091662671	31.3294449137	0.0000000000	0.0000000000	0.0106666667	0.0100000000	640	360	0.0000000000	0.0000000000	10.4099117608	36.3078718722	0.9988882540	0.0445208187	-0.0154968629	-0.0440400076	0.9985763474	0.0300957834	
#timeindex 11
-0.3312393419	-0.0841310866	1.0110531115	0.0228281336	-0.0248880993	0.9994295667	974.4285126082	49.8525226034	-21.0156377912	-52.5877821708	1039.3092415397	27.0823612088	0.0000000000	0.0000000000	0.0106666667	0.0100000000	640	360	0.0000000000	0.0000000000	10.4099117608	36.3078718722	0.9984622707	0.0510821084	-0.0215339773	-0.0505170297	0.9983842951	0.0260159373	
#timeindex 12
-0.3595081945	-0.0919599920	1.1073485523	0.0241293008	-0.0203590141	0.9995015195	974.4136280037	49.4872215579	-22.5156320951	-52.2711008750	1039.4359341100	22.4343390000	0.0000000000	0.0000000000	0.0106666667	0.0100000000	640	360	0.0000000000	0.0000000000	10.4099117608	36.3078718722	0.9984470190	0.0507077974	-0.0230709681	-0.0502128184	0.9985059989	0.0215509406	
#timeindex 13
-0.3886914529	-0.0973416545	1.2104169881	0.0215542237	-0.0219118691	0.9995275311	974.4857833509	49.1717485243	-19.9362589129	-51.9591207543	1039.4187516965	23.9068413711	0.0000000000	0.0000000000	0.0106666667	0.0100000000	640	360	0.0000000000	0.0000000000	10.4099117608	36.3078718722	0.9985209540	0.0503845434	-0.0204279761	-0.0499131231	0.9984894931	0.0229654602	
#timeindex 14
-0.4156641696	-0.1034042781	1.3178021936	0.0185546966	-0.0241310028	0.9995366016	974.5324831423	49.3836379213	-16.8983085416	-52.2165125239	1039.3540579616	26.0615941722	0.0000000000	0.0000000000	0.0106666667	0.0100000000	640	360	0.0000000000	0.0000000000	10.4099117608	36.3078718722	0.9985688056	0.0506016589	-0.0173150963	-0.0501603796	0.9984273468	0.0250353651	
#timeindex 15
-0.4430628383	-0.1117716968	1.4263445039	0.0172451321	-0.0241989883	0.9995584097	974.5534794846	49.3908002520	-15.6179928433	-52.2571201350	1039.3519578285	26.0639564437	0.0000000000	0.0000000000	0.0106666667	0.0100000000	640	360	0.0000000000	0.0000000000	10.4099117608	36.3078718722	0.9985903198	0.0506089979	-0.0160032023	-0.0501993882	0.9984253294	0.0250376344	
#timeindex 16
-0.4689421390	-0.1187794913	1.5267697645	0.0173425986	-0.0232399549	0.9995794810	974.5324955712	49.7611805306	-15.7511019767	-52.6658134481	1039.3555745605	25.0784847232	0.0000000000	0.0000000000	0.0106666667	0.0100000000	640	360	0.0000000000	0.0000000000	10.4099117608	36.3078718722	0.9985688184	0.0509885134	-0.0161395945	-0.0505919883	0.9984288037	0.0240909676	
#timeindex 17
-0.4946461301	-0.1241210258	1.6352299915	0.0191310442	-0.0212774260	0.9995905533	974.4782087706	50.2091925519	-17.5816620352	-53.1355115219	1039.3766052924	23.1412717540	0.0000000000	0.0000000000	0.0106666667	0.0100000000	640	360	-0.0000000000	0.0000000000	10.4099117608	36.3078718722	0.9985131926	0.0514475754	-0.0180153043	-0.0510431911	0.9984490063	0.0222300364	
#timeindex 18
-0.5180765894	-0.1291933271	1.7352288224	0.0205881234	-0.0186992629	0.9996131585	974.5040536388	49.1213219428	-19.1520859834	-51.9938025481	1039.4894726277	20.5160782052	0.0000000000	0.0000000000	0.0106666667	0.0100000000	640	360	0.0000000000	0.0000000000	10.4099117608	36.3078718722	0.9985396749	0.0503328731	-0.0196244619	-0.0499464393	0.9985574292	0.0197082153	
#timeindex 19
-0.5396083307	-0.1324376673	1.8484180300	0.0205847234	-0.0173365888	0.9996377903	974.6815854378	45.4072402326	-19.2833287654	-48.0602518929	1039.7071875542	19.0211726301	0.0000000000	0.0000000000	0.0106666667	0.0100000000	640	360	-0.0000000000	0.0000000000	10.4099117608	36.3078718722	0.9987215854	0.0465271855	-0.0197589418	-0.0461677803	0.9987665712	0.0182721747	
#timeindex 20
-0.5612850056	-0.1348697816	1.9566095384	0.0217708005	-0.0183072194	0.9995953571	974.7705688004	42.9212850031	-20.4440387333	-45.3649532879	1039.8092991096	20.0317540572	0.0000000000	0.0000000000	0.0106666667	0.0100000000	640	360	-0.0000000000	-0.0000000000	10.4099117608	36.3078718722	0.9988127635	0.0439799155	-0.0209482800	-0.0435786146	0.9988646619	0.0192429624	
#timeindex 21
-0.5801075679	-0.1371234878	2.0793174697	0.0238618091	-0.0198849617	0.9995174848	974.8096651998	40.9838403275	-22.4565957000	-43.2186842181	1039.8668370069	21.7194682239	0.0000000000	0.0000000000	0.0106666667	0.0100000000	640	360	-0.0000000000	0.0000000000	10.4099117608	36.3078718722	0.9988528242	0.0419946848	-0.0230104756	-0.0415168593	0.9989199341	0.0208642193	
#timeindex 22
-0.5917023025	-0.1401653335	2.2030414270	0.0249978902	-0.0220391437	0.9994445365	974.9712368089	36.2298928894	-23.5868497668	-38.0692635060	1040.0205838950	23.8860822020	0.0000000000	0.0000000000	0.0106666667	0.0100000000	640	360	-0.0000000000	-0.0000000000	10.4099117608	36.3078718722	0.9990183809	0.0371234838	-0.0241686068	-0.0365702077	0.9990676269	0.0229455184	
#timeindex 23
-0.6152474630	-0.1422084157	2.2975168382	0.0227734247	-0.0260043891	0.9994023929	975.1675712237	32.0729880406	-21.3866476382	-33.5975192396	1040.0766414321	27.8283186785	0.0000000000	0.0000000000	0.0106666667	0.0100000000	640	360	0.0000000000	-0.0000000000	10.4099117608	36.3078718722	0.9992195578	0.0328640511	-0.0219141379	-0.0322745476	0.9991214770	0.0267325212	
#timeindex 24
-0.6348232489	-0.1464614391	2.4253074854	0.0177837975	-0.0310588528	0.9993593369	975.3567000048	29.0943620155	-16.4524490628	-30.4690433471	1040.0260394295	32.8649262637	0.0000000000	0.0000000000	0.0106666667	0.0100000000	640	360	0.0000000000	0.0000000000	10.4099117608	36.3078718722	0.9994133513	0.0298119589	-0.0168582399	-0.0292692619	0.9990728676	0.0315708020	
#timeindex 25
-0.6466454104	-0.1486613534	2.5552170651	0.0129583605	-0.0393707041	0.9991406450	975.5311367015	25.3185989083	-11.6544884347	-26.4938622181	1039.8334210543	41.3177975622	0.0000000000	0.0000000000	0.0106666667	0.0100000000	640	360	0.0000000000	0.0000000000	10.4099117608	36.3078718722	0.9995920904	0.0259430686	-0.0119419402	-0.0254506117	0.9988878340	0.0396908240	
#timeindex 26
-0.6631822085	-0.1511812460	2.6611037866	0.0082009155	-0.0472686374	0.9988485475	975.6863418048	20.6038460163	-7.0357068137	-21.5973902858	1039.5952902381	49.3742232313	0.0000000000	0.0000000000	0.0106666667	0.0100000000	640	360	0.0000000000	0.0000000000	10.4099117608	36.3078718722	0.9997511236	0.0211120289	-0.0072092388	-0.0207469485	0.9986590800	0.0474300113	
#timeindex 27
-0.6837906895	-0.1671582041	2.7985862584	0.0062418804	-0.0523549317	0.9986090326	975.7719915494	16.7213494509	-5.2224712242	-17.5196463739	1039.4104774370	54.6035718363	0.0000000000	0.0000000000	0.0106666667	0.0100000000	640	360	0.0000000000	0.0000000000	10.4099117608	36.3078718722	0.9998388858	0.0171337726	-0.0053512807	-0.0168297741	0.9984815446	0.0524534435	
#timeindex 28
-0.7039460549	-0.1729945948	2.9033388518	0.0101445853	-0.0549932081	0.9984351929	975.7819974923	14.2841340119	-9.1276563714	-14.6771445248	1039.3041954173	57.3933749556	0.0000000000	0.0000000000	0.0106666667	0.0100000000	640	360	0.0000000000	-0.0000000000	10.4099117608	36.3078718722	0.9998491386	0.0146364445	-0.0093527851	-0.0140992017	0.9983794477	0.0551333924	
#timeindex 29
-0.7198018761	-0.1882796983	3.0352961473	0.0130888109	-0.0560149356	0.9983441341	975.8127903379	8.7090867123	-12.3047652162	-8.5391093340	1039.3152319191	58.4256877149	0.0000000000	0.0000000000	0.0106666667	0.0100000000	640	360	0.0000000000	-0.0000000000	10.4099117608	36.3078718722	0.9998806909	0.0089238917	-0.0126082557	-0.0082028643	0.9983900496	0.0561250557	
#timeindex 30
-0.7391970422	-0.1984203480	3.1465420290	0.0112287725	-0.0546478744	0.9984425494	975.8608134216	4.2599233907	-10.7416528668	-3.9106989584	1039.4256789427	56.9349897719	0.0000000000	0.0000000000	0.0106666667	0.0100000000	640	360	0.0000000000	0.0000000000	10.4099117608	36.3078718722	0.9999298985	0.0043649921	-0.0110065900	-0.0037567071	0.9984961475	0.0546930570	
#timeindex 31
-0.7582695642	-0.2135725279	3.2670016047	0.0039538774	-0.0508554297	0.9986981987	975.9056426854	5.7697554364	-3.5698350571	-5.9527454568	1039.6259436413	52.9631079301	0.0000000000	0.0000000000	0.0106666667	0.0100000000	640	360	0.0000000000	-0.0000000000	10.4099117608	36.3078718722	0.9999758334	0.0059120634	-0.0036578831	-0.0057183438	0.9986885264	0.0508775762	
#timeindex 32
-0.7780126650	-0.2241522998	3.3800525762	-0.0030684307	-0.0491805354	0.9987851920	975.8817709593	8.9882286336	3.4406512244	-9.7562909126	1039.6872739596	51.1645954373	0.0000000000	0.0000000000	0.0106666667	0.0100000000	640	360	0.0000000000	0.0000000000	10.4099117608	36.3078718722	0.9999513729	0.0092099185	0.0035255130	-0.0093721168	0.9987474417	0.0491498839	
#timeindex 33
-0.7975734286	-0.2290748057	3.4949505568	-0.0061474193	-0.0501121171	0.9987246793	975.8749811543	8.0487411559	6.4106277638	-8.9170416624	1039.6478254589	52.1105944957	0.0000000000	0.0000000000	0.0106666667	0.0100000000	640	360	0.0000000000	0.0000000000	10.4099117608	36.3078718722	0.9999444156	0.0082472591	0.0065687425	-0.0085659147	0.9987095466	0.0500586323	
#timeindex 34
-0.8139970161	-0.2335198966	3.6201189383	-0.0074452763	-0.0499863836	0.9987221482	975.8882034975	4.8530332337	7.5179497401	-5.5708020227	1039.6769453010	51.9946559433	0.0000000000	0.0000000000	0.0106666667	0.0100000000	640	360	0.0000000000	0.0000000000	10.4099117608	36.3078718722	0.9999579641	0.0049727307	0.0077033759	-0.0053514402	0.9987375198	0.0499472591	
#timeindex 35
-0.8368242897	-0.2354495153	3.7377193022	-0.0054403198	-0.0473581992	0.9988631557	975.9110084285	2.4605948295	5.4319726240	-2.8960490219	1039.8198413531	49.2842682877	0.0000000000	0.0000000000	0.0106666667	0.0100000000	640	360	-0.0000000000	0.0000000000	10.4099117608	36.3078718722	0.9999813315	0.0025212841	0.0055659493	-0.0027820111	0.9988747890	0.0473435985	
#timeindex 36
-0.8586802322	-0.2371729422	3.8589259962	-0.0024825126	-0.0442455454	0.9990176019	975.9259236368	0.6530138519	2.4540521681	-0.8116834229	1039.9714859214	46.0573372296	0.0000000000	0.0000000000	0.0106666667	0.0100000000	640	360	-0.0000000000	0.0000000000	10.4099117608	36.3078718722	0.9999966146	0.0006691201	0.0025145801	-0.0007797217	0.9990204622	0.0442437345	
#timeindex 37
-0.8798652002	-0.2362957677	3.9868947750	-0.0021963523	-0.0428510253	0.9990790588	975.9263880991	-1.0644637562	2.0997986009	1.0384052531	1040.0343777606	44.6099031926	0.0000000000	0.0000000000	0.0106666667	0.0100000000	640	360	-0.0000000000	0.0000000000	10.4099117608	36.3078718722	0.9999970905	-0.0010907182	0.0021515890	0.0009975159	0.9990808776	0.0428532962	
#timeindex 38
-0.9000775431	-0.2338319905	4.1062359487	-0.0021223919	-0.0433445664	0.9990579283	975.9270044353	-0.3107918455	2.0597688683	0.2359672200	1040.0127816775	45.1219119620	0.0000000000	0.0000000000	0.0106666667	0.0100000000	640	360	-0.0000000000	0.0000000000	10.4099117608	36.3078718722	0.9999977220	-0.0003184574	0.0021105720	0.0002266755	0.9990601319	0.0433451436	
#timeindex 39
-0.9241208108	-0.2351879297	4.2480775486	-0.0017157866	-0.0446117159	0.9990029284	975.9238661234	2.6903713220	1.7962901602	-2.9523460430	1039.9508076510	46.4352236029	0.0000000000	0.0000000000	0.0106666667	0.0100000000	640	360	-0.0000000000	0.0000000000	10.4099117608	36.3078718722	0.9999945063	0.0027567279	0.0018405947	-0.0028360913	0.9990005982	0.0446067408	
#timeindex 40
-0.9521893681	-0.2349793329	4.3674920223	-0.0003936789	-0.0468132230	0.9989035825	975.9161987199	5.0046917683	0.6191622099	-5.3634021497	1039.8361929557	48.7293998409	0.0000000000	0.0000000000	0.0106666667	0.0100000000	640	360	0.0000000000	0.0000000000	10.4099117608	36.3078718722	0.9999866498	0.0051281298	0.0006344335	-0.0051522071	0.9988904967	0.0468105791	
#timeindex 41
-0.9860377702	-0.2350859531	4.4972751295	0.0023993338	-0.0488679153	0.9988023679	975.8879130400	8.7733133054	-1.9150408801	-9.2471701845	1039.7053366815	50.8913685392	0.0000000000	0.0000000000	0.0106666667	0.0100000000	640	360	0.0000000000	0.0000000000	10.4099117608	36.3078718722	0.9999576665	0.0089897024	-0.0019622743	-0.0088830438	0.9987647932	0.0488874159	
#timeindex 42
-1.0152459403	-0.2350151759	4.6017966816	0.0080581300	-0.0504032029	0.9986964422	975.8175881612	12.8727541264	-7.2238536666	-13.3246596110	1039.5773485812	52.5739330390	0.0000000000	0.0000000000	0.0106666667	0.0100000000	640	360	0.0000000000	-0.0000000000	10.4099117608	36.3078718722	0.9998856071	0.0131902537	-0.0074020262	-0.0127999736	0.9986418449	0.0505037259	
#timeindex 43
-1.0432052423	-0.2442953791	4.7339384094	0.0168526686	-0.0562774457	0.9982729269	975.6484695275	17.5573880851	-15.4809320686	-17.7662270713	1039.1726382541	58.8830854467	0.0000000000	0.0000000000	0.0106666667	0.0100000000	640	360	0.0000000000	0.0000000000	10.4099117608	36.3078718722	0.9997123172	0.0179904317	-0.0158627610	-0.0170666452	0.9982530709	0.0565644424	
#timeindex 44
-1.0654338583	-0.2473383618	4.8374667897	0.0256278662	-0.0647356793	0.9975733077	975.2613411534	27.6041744903	-23.2633451542	-27.7666338147	1038.3902633548	68.0977509805	0.0000000000	0.0000000000	0.0106666667	0.0100000000	640	360	0.0000000000	0.0000000000	10.4099117608	36.3078718722	0.9993156405	0.0282850167	-0.0238371231	-0.0266732653	0.9975015036	0.0654162615	
#timeindex 45
-1.0962126885	-0.2588256917	4.9483175975	0.0324015891	-0.0716257187	0.9969051577	974.8708555498	34.8284465516	-29.1830693370	-34.8057596654	1037.6526525972	75.6846108820	0.0000000000	0.0000000000	0.0106666667	0.0100000000	640	360	0.0000000000	0.0000000000	10.4099117608	36.3078718722	0.9989155238	0.0356874716	-0.0299028541	-0.0334352110	0.9967929378	0.0727043731	
#timeindex 46
-1.1201903111	-0.2682295842	5.0713796202	0.0340301215	-0.0765966868	0.9964812584	974.7187278382	37.9321747013	-30.3711861683	-37.8371935445	1037.1439783386	81.0144657005	0.0000000000	0.0000000000	0.0106666667	0.0100000000	640	360	-0.0000000000	0.0000000000	10.4099117608	36.3078718722	0.9987596439	0.0388677515	-0.0311202752	-0.0363472760	0.9963042936	0.0778243539	
#timeindex 47
-1.1424495499	-0.2782280832	5.1930212834	0.0338217324	-0.0768686490	0.9964674110	974.6036111186	41.1243770057	-29.9072572451	-41.2588490939	1036.9837358876	81.3945179253	0.0000000000	0.0000000000	0.0106666667	0.0100000000	640	360	0.0000000000	0.0000000000	10.4099117608	36.3078718722	0.9986416879	0.0421386878	-0.0306449037	-0.0396341968	0.9961503610	0.0781894408	
#timeindex 48
-1.1678389450	-0.2890138408	5.3242835482	0.0348431095	-0.0730316603	0.9967207906	974.5246835608	42.1899943080	-30.9758411756	-42.4420558613	1037.2355281476	77.4839319782	0.0000000000	0.0000000000	0.0106666667	0.0100000000	640	360	0.0000000000	0.0000000000	10.4099117608	36.3078718722	0.9985608137	0.0432305880	-0.0317398437	-0.0407708123	0.9963922385	0.0744328422	
#timeindex 49
-1.1936440323	-0.3006965920	5.4604883844	0.0383195917	-0.0695867537	0.9968396524	974.4126112720	42.0240613542	-34.5238828460	-42.1214355008	1037.4998078047	74.0443255676	0.0000000000	0.0000000000	0.0106666667	0.0100000000	640	360	0.0000000000	0.0000000000	10.4099117608	36.3078718722	0.9984459772	0.0430605624	-0.0353753960	-0.0404628170	0.9966461116	0.0711286774	
#timeindex 50
-1.2160973351	-0.3060419541	5.5762758874	0.0431178488	-0.0695583939	0.9966456145	974.2674938059	41.2104089299	-39.2735271461	-40.8963945208	1037.5390027595	74.1817453294	0.0000000000	0.0000000000	0.0106666667	0.0100000000	640	360	0.0000000000	0.0000000000	10.4099117608	36.3078718722	0.9982972805	0.0422268416	-0.0402421877	-0.0392860146	0.9966837631	0.0712606860	
#timeindex 51
-1.2367728125	-0.3130476367	5.6992400497	0.0452374375	-0.0682011459	0.9966454625	974.2488412309	39.4053682367	-41.5243246764	-38.8705865880	1037.7164170838	72.7759842618	0.0000000000	0.0000000000	0.0106666667	0.0100000000	640	360	0.0000000000	0.0000000000	10.4099117608	36.3078718722	0.9982781678	0.0403772806	-0.0425484999	-0.0373399770	0.9968541914	0.0699102797	
#timeindex 52
-1.2533600167	-0.3177953640	5.8515898425	0.0452275350	-0.0610835667	0.9971074506	974.3159342767	37.2810951654	-41.9098721441	-36.9208035035	1038.2860346423	65.2808793418	0.0000000000	0.0000000000	0.0106666667	0.0100000000	640	360	0.0000000000	-0.0000000000	10.4099117608	36.3078718722	0.9983469157	0.0382006134	-0.0429435567	-0.0354669707	0.9974013791	0.0627103100	
#timeindex 53
-1.2643276365	-0.3188393769	6.0048736858	0.0428704600	-0.0536548545	0.9976388526	974.4453180910	36.0466997689	-39.9351312978	-36.0734661749	1038.7803162974	57.4176643835	0.0000000000	0.0000000000	0.0106666667	0.0100000000	640	360	0.0000000000	-0.0000000000	10.4099117608	36.3078718722	0.9984794907	0.0369357723	-0.0409201100	-0.0346529990	0.9978761974	0.0551567253	
#timeindex 54
-1.2878551471	-0.3179741585	6.1183885543	0.0419316424	-0.0479342429	0.9979699623	974.4511961444	36.7101517903	-39.1802030850	-37.0747257892	1039.0569746996	51.4654904572	0.0000000000	0.0000000000	0.0106666667	0.0100000000	640	360	0.0000000000	-0.0000000000	10.4099117608	36.3078718722	0.9984855137	0.0376155881	-0.0401465618	-0.0356148319	0.9981419618	0.0494389305	
#timeindex 55
-1.3030167352	-0.3189747570	6.2517771103	0.0428756463	-0.0448033336	0.9980753179	974.4028061410	36.8885292682	-40.2027986379	-37.3507319224	1039.2011856039	48.2539877773	0.0000000000	0.0000000000	0.0106666667	0.0100000000	640	360	0.0000000000	-0.0000000000	10.4099117608	36.3078718722	0.9984359302	0.0377983651	-0.0411943792	-0.0358799698	0.9982804941	0.0463538874	
#timeindex 56
-1.3232324513	-0.3194096142	6.3726458787	0.0459163878	-0.0450303197	0.9979298350	974.2477332706	37.6735118689	-43.1267660039	-38.0304100523	1039.1585120587	48.6405530333	0.0000000000	0.0000000000	0.0106666667	0.0100000000	640	360	-0.0000000000	0.0000000000	10.4099117608	36.3078718722	0.9982770325	0.0386027089	-0.0441904646	-0.0365328842	0.9982395009	0.0467252309	
#timeindex 57
-1.3356187480	-0.3182293563	6.5263581453	0.0508973890	-0.0462879450	0.9976306340	973.9991272829	38.3117463615	-47.9141666760	-38.4033317371	1039.0720777320	50.1700115738	0.0000000000	0.0000000000	0.0106666667	0.0100000000	640	360	0.0000000000	0.0000000000	10.4099117608	36.3078718722	0.9980222948	0.0392566851	-0.0490959440	-0.0368911213	0.9981564701	0.0481944638	
#timeindex 58
-1.3504198488	-0.3173938435	6.6515533215	0.0544637847	-0.0462724487	0.9974430092	973.8824557996	36.6165461749	-51.4786174768	-36.4169347409	1039.1423655313	50.1954150725	0.0000000000	0.0000000000	0.0106666667	0.0100000000	640	360	0.0000000000	0.0000000000	10.4099117608	36.3078718722	0.9979027457	0.0375196737	-0.0527483100	-0.0349829428	0.9982239902	0.0482188670	
#timeindex 59
-1.3617808429	-0.3222513840	6.7940113426	0.0566477384	-0.0463626326	0.9973171712	973.8594719698	33.8753283625	-53.7405639020	-33.3790854819	1039.2437921831	50.2076262468	0.0000000000	0.0000000000	0.0106666667	0.0100000000	640	360	0.0000000000	0.0000000000	10.4099117608	36.3078718722	0.9978791950	0.0347108452	-0.0550660462	-0.0320647151	0.9983214230	0.0482305973	
#timeindex 60
-1.3800165348	-0.3323811954	6.9139607500	0.0555242148	-0.0499949008	0.9972048794	974.0471458085	29.8071054749	-52.7404155372	-28.8928417904	1039.2031324954	53.7092336312	0.0000000000	0.0000000000	0.0106666667	0.0100000000	640	360	0.0000000000	0.0000000000	10.4099117608	36.3078718722	0.9980714977	0.0305422818	-0.0540412297	-0.0277551265	0.9982823643	0.0515943217	
#timeindex 61
-1.3954930609	-0.3416908326	7.0374421194	0.0535524923	-0.0549192470	0.9970536630	974.2224067725	27.3070318903	-50.8220953630	-26.0644959630	1039.0119137206	58.6303152734	0.0000000000	0.0000000000	0.0106666667	0.0100000000	640	360	0.0000000000	0.0000000000	10.4099117608	36.3078718722	0.9982510814	0.0279805452	-0.0520755952	-0.0250381526	0.9980986752	0.0563216256	
#timeindex 62
-1.4031609797	-0.3583443551	7.1776709149	0.0577968664	-0.0551309761	0.9968049447	974.0495722938	25.1102846479	-55.0886698393	-23.4591613418	1039.0628080047	58.8283727693	0.0000000000	0.0000000000	0.0106666667	0.0100000000	640	360	-0.0000000000	0.0000000000	10.4099117608	36.3078718722	0.9980739840	0.0257296164	-0.0564474024	-0.0225354084	0.9981475654	0.0565118842	
#timeindex 63
-1.4170615845	-0.3703353961	7.3021110848	0.0634255214	-0.0523876223	0.9966106262	973.8082328501	20.6931116023	-60.8865994364	-18.5954887865	1039.3273568669	55.8165005798	0.0000000000	0.0000000000	0.0106666667	0.0100000000	640	360	0.0000000000	0.0000000000	10.4099117608	36.3078718722	0.9978266921	0.0212034961	-0.0623883348	-0.0178632530	0.9984016971	0.0536186107	
#timeindex 64
-1.4294006999	-0.3825903055	7.4386456795	0.0629603087	-0.0483871633	0.9968423556	973.8812845383	17.7431679802	-60.6488321526	-15.7360175173	1039.5995551700	51.4564992508	0.0000000000	0.0000000000	0.0106666667	0.0100000000	640	360	0.0000000000	0.0000000000	10.4099117608	36.3078718722	0.9979015455	0.0181807937	-0.0621447032	-0.0151163793	0.9986631770	0.0494302934	
#timeindex 65
-1.4484803961	-0.3934680614	7.5683209729	0.0561395712	-0.0465365031	0.9973378076	974.2850278493	16.8709029693	-54.0547349188	-15.2645024412	1039.7076301577	49.3727397385	0.0000000000	0.0000000000	0.0106666667	0.0100000000	640	360	-0.0000000000	0.0000000000	10.4099117608	36.3078718722	0.9983152470	0.0172870148	-0.0553879660	-0.0146634312	0.9987669963	0.0474285862	
#timeindex 66
-1.4623516580	-0.4017185713	7.7167174750	0.0472987941	-0.0476301869	0.9977445512	974.7572572456	14.6656539739	-45.5089580841	-13.2959745711	1039.6920116918	50.2629740137	0.0000000000	0.0000000000	0.0106666667	0.0100000000	640	360	-0.0000000000	0.0000000000	10.4099117608	36.3078718722	0.9987991237	0.0150273745	-0.0466314122	-0.0127724181	0.9987519929	0.0482837657	
#timeindex 67
-1.4846878015	-0.4115375616	7.8284454050	0.0425967834	-0.0492125153	0.9978795731	974.9987768523	11.3751878923	-41.0590728391	-9.9524772149	1039.6590374844	51.6978011765	0.0000000000	0.0000000000	0.0106666667	0.0100000000	640	360	-0.0000000000	0.0000000000	10.4099117608	36.3078718722	0.9990466002	0.0116557508	-0.0420717729	-0.0095605779	0.9987203171	0.0496620936	
#timeindex 68
-1.5012201477	-0.4138544765	7.9789769183	0.0410689326	-0.0493271705	0.9979379605	975.0819409429	8.8046824456	-39.6931132506	-7.2838164033	1039.6815330884	51.6902741895	0.0000000000	0.0000000000	0.0106666667	0.0100000000	640	360	0.0000000000	0.0000000000	10.4099117608	36.3078718722	0.9991318155	0.0090218452	-0.0406721227	-0.0069970011	0.9987419269	0.0496548630	
#timeindex 69
-1.5187325316	-0.4172999342	8.1067618455	0.0413367028	-0.0486724751	0.9979590508	975.0836032471	6.6934574951	-40.0627199634	-5.0451677307	1039.7328724734	50.9188457538	0.0000000000	0.0000000000	0.0106666667	0.0100000000	640	360	0.0000000000	0.0000000000	10.4099117608	36.3078718722	0.9991335188	0.0068585480	-0.0410508455	-0.0048465038	0.9987912447	0.0489138111	
#timeindex 70
-1.5377504116	-0.4212438416	8.2444267544	0.0423943109	-0.0487063818	0.9979130277	975.0507666288	3.4534019977	-41.2544995935	-1.5326265972	1039.7491399832	50.8134394830	0.0000000000	0.0000000000	0.0106666667	0.0100000000	640	360	0.0000000000	-0.0000000000	10.4099117608	36.3078718722	0.9990998723	0.0035385783	-0.0422720198	-0.0014722763	0.9988068716	0.0488125554	
#timeindex 71
-1.5585170442	-0.4243377699	8.3894676717	0.0407709085	-0.0498680263	0.9979233001	975.1175556871	1.3506715497	-39.7716670837	0.6778324594	1039.6949932828	51.9277397745	0.0000000000	0.0000000000	0.0106666667	0.0100000000	640	360	0.0000000000	0.0000000000	10.4099117608	36.3078718722	0.9991683087	0.0013839851	-0.0407526140	0.0006511414	0.9987548571	0.0498829778	
#timeindex 72
-1.5771225405	-0.4290811396	8.5192487303	0.0376074866	-0.0516599248	0.9979563764	975.2347441425	-0.9286095558	-36.7993033495	3.0162784757	1039.6007047226	53.7020062617	0.0000000000	0.0000000000	0.0106666667	0.0100000000	640	360	-0.0000000000	0.0000000000	10.4099117608	36.3078718722	0.9992883875	-0.0009515132	-0.0377069385	0.0028975063	0.9986642813	0.0515873789	
#timeindex 73
-1.5987225310	-0.4334502572	8.6619663206	0.0354976194	-0.0522685607	0.9980019622	975.3108816460	-0.7145938020	-34.7279530644	2.6969025496	1039.5679288658	54.3495783108	0.0000000000	0.0000000000	0.0106666667	0.0100000000	640	360	-0.0000000000	0.0000000000	10.4099117608	36.3078718722	0.9993664029	-0.0007322189	-0.0355844995	0.0025907064	0.9986327961	0.0522094515	
#timeindex 74
-1.6232441552	-0.4349731498	8.7975068511	0.0364372661	-0.0509349712	0.9980370506	975.2807830326	2.6628892302	-35.4705581240	-0.9077016060	1039.6360601177	53.0911221673	0.0000000000	0.0000000000	0.0106666667	0.0100000000	640	360	-0.0000000000	0.0000000000	10.4099117608	36.3078718722	0.9993355619	0.0027285680	-0.0363454205	-0.0008719590	0.9986982445	0.0510005497	
#timeindex 75
-1.6487305852	-0.4420981491	8.9210314715	0.0411983725	-0.0496570739	0.9979162636	975.0954813007	5.1720913257	-39.9988630295	-3.3867600570	1039.6922958870	51.8757014575	0.0000000000	0.0000000000	0.0106666667	0.0100000000	640	360	0.0000000000	0.0000000000	10.4099117608	36.3078718722	0.9991456898	0.0052996582	-0.0409854136	-0.0032533994	0.9987522659	0.0498329886	
#timeindex 76
-1.6826051051	-0.4543437009	9.0331661183	0.0451495960	-0.0505449260	0.9977007189	974.9287999501	5.4162124875	-43.8446906210	-3.4001412795	1039.6445169389	52.8237267748	0.0000000000	0.0000000000	0.0106666667	0.0100000000	640	360	-0.0000000000	0.0000000000	10.4099117608	36.3078718722	0.9989748974	0.0055498005	-0.0449260965	-0.0032662537	0.9987063683	0.0507436835	
#timeindex 77
-1.7102369750	-0.4690161791	9.1591357930	0.0471253124	-0.0513571995	0.9975678639	974.8430114048	0.4179409122	-46.0302690203	2.0768653739	1039.6173347060	53.4238961630	0.0000000000	0.0000000000	0.0106666667	0.0100000000	640	360	0.0000000000	0.0000000000	10.4099117608	36.3078718722	0.9988869929	0.0004282492	-0.0471655810	0.0019950845	0.9986802565	0.0513202200	
#timeindex 78
-1.7421751746	-0.4813395319	9.2632100200	0.0479682643	-0.0505679889	0.9975680048	974.7928078040	-2.6615691861	-47.0080325960	5.3676777933	1039.6554774092	52.4433503917	0.0000000000	0.0000000000	0.0106666667	0.0100000000	640	360	0.0000000000	0.0000000000	10.4099117608	36.3078718722	0.9988355510	-0.0027272154	-0.0481674606	0.0051563144	0.9987168972	0.0503782852	
#timeindex 79
-1.7788923886	-0.4970489262	9.3933583345	0.0470750443	-0.0488543867	0.9976959402	974.8472232976	2.5456073195	-45.8723046915	-0.3185906938	1039.7445949692	50.9284243267	0.0000000000	0.0000000000	0.0106666667	0.0100000000	640	360	0.0000000000	0.0000000000	10.4099117608	36.3078718722	0.9988913087	0.0026083934	-0.0470037206	-0.0003060455	0.9988025056	0.0489230125	
#timeindex 80
-1.8117112815	-0.5091659643	9.5075665700	0.0434740026	-0.0441628252	0.9980779809	974.9864983751	8.1273128107	-42.1085739267	-6.6688622629	1039.9393962290	46.3055841034	0.0000000000	0.0000000000	0.0106666667	0.0100000000	640	360	-0.0000000000	-0.0000000000	10.4099117608	36.3078718722	0.9990340189	0.0083277686	-0.0431471594	-0.0064062620	0.9989896362	0.0444822062	
#timeindex 81
-1.8271591478	-0.5286219530	9.6643725182	0.0383461360	-0.0371626375	0.9985732383	975.1540725318	11.9705448784	-37.0013257257	-11.2836255016	1040.1937257708	39.1448762258	0.0000000000	0.0000000000	0.0106666667	0.0100000000	640	360	-0.0000000000	0.0000000000	10.4099117608	36.3078718722	0.9992057262	0.0122657920	-0.0379139436	-0.0108393095	0.9992339509	0.0376034659	
#timeindex 82
-1.8592735268	-0.5363403937	9.7697869263	0.0329478599	-0.0320818337	0.9989420376	975.3017879333	14.8291553554	-31.6918890398	-14.7165149369	1040.3350775806	33.8965959285	0.0000000000	0.0000000000	0.0106666667	0.0100000000	640	360	0.0000000000	0.0000000000	10.4099117608	36.3078718722	0.9993570849	0.0151949085	-0.0324735525	-0.0141370218	0.9993697367	0.0325618475	
#timeindex 83
-1.8923129350	-0.5428189741	9.8964746918	0.0314064581	-0.0324073339	0.9989811806	975.3379542981	15.6315152886	-30.1560584434	-15.6141996190	1040.3107797471	34.2389687974	0.0000000000	0.0000000000	0.0106666667	0.0100000000	640	360	-0.0000000000	0.0000000000	10.4099117608	36.3078718722	0.9993941433	0.0160170583	-0.0308998415	-0.0149993583	0.9993463957	0.0328907387	
#timeindex 84
-1.9053593770	-0.5499490478	10.0410107901	0.0343972765	-0.0339335660	0.9988319881	975.2611371628	14.4317423386	-33.0952621758	-14.1779686693	1040.2777679388	35.8298675515	0.0000000000	0.0000000000	0.0106666667	0.0100000000	640	360	0.0000000000	-0.0000000000	10.4099117608	36.3078718722	0.9993154315	0.0147876935	-0.0339115391	-0.0136196819	0.9993146838	0.0344189926	
#timeindex 85
-1.9261050688	-0.5521101643	10.1716755070	0.0363240413	-0.0347417941	0.9987359870	975.2236798095	12.1851341285	-35.0450291831	-11.6823517584	1040.2815589438	36.6118758187	0.0000000000	0.0000000000	0.0106666667	0.0100000000	640	360	-0.0000000000	-0.0000000000	10.4099117608	36.3078718722	0.9992770503	0.0124856739	-0.0359093961	-0.0112223350	0.9993183255	0.0351702076	
#timeindex 86
-1.9496799586	-0.5553414230	10.2906504991	0.0370794441	-0.0346611147	0.9987110303	975.1992428017	11.9705281531	-35.7910676018	-11.4288428867	1040.2873102687	36.5283768633	0.0000000000	0.0000000000	0.0106666667	0.0100000000	640	360	-0.0000000000	0.0000000000	10.4099117608	36.3078718722	0.9992520105	0.0122657748	-0.0366738351	-0.0109788086	0.9993238504	0.0350899966	
#timeindex 87
-1.9646784232	-0.5572059772	10.4392408629	0.0366275131	-0.0334068303	0.9987704486	975.2077460302	12.5953986052	-35.3421171145	-12.1591933919	1040.3233832841	35.2426003652	0.0000000000	0.0000000000	0.0106666667	0.0100000000	640	360	-0.0000000000	-0.0000000000	10.4099117608	36.3078718722	0.9992607235	0.0129060574	-0.0362138115	-0.0116804001	0.9993585029	0.0338548502	
#timeindex 88
-1.9859180538	-0.5576544761	10.5702930556	0.0364360262	-0.0338504365	0.9987625163	975.2192789884	12.1951176548	-35.1638197619	-11.7223634648	1040.3132702695	35.6863358730	0.0000000000	0.0000000000	0.0106666667	0.0100000000	640	360	-0.0000000000	-0.0000000000	10.4099117608	36.3078718722	0.9992725409	0.0124959037	-0.0360311166	-0.0112607712	0.9993487881	0.0342811127	
#timeindex 89
-2.0057368209	-0.5604579063	10.7065735196	0.0378824790	-0.0366929286	0.9986083050	975.1817943132	10.9233767469	-36.5924186940	-10.2031911815	1040.2249068839	38.6091525440	0.0000000000	0.0000000000	0.0106666667	0.0100000000	640	360	-0.0000000000	-0.0000000000	10.4099117608	36.3078718722	0.9992341317	0.0111927960	-0.0374949511	-0.0098014195	0.9992639042	0.0370888375	
#timeindex 90
-2.0273881919	-0.5592449793	10.8253055059	0.0394886365	-0.0409822294	0.9983792388	975.1307084971	10.1106936982	-38.1540619625	-9.0993793699	1040.0607001225	43.0531070639	0.0000000000	0.0000000000	0.0106666667	0.0100000000	640	360	-0.0000000000	0.0000000000	10.4099117608	36.3078718722	0.9991817859	0.0103600686	-0.0390951115	-0.0087410725	0.9991061635	0.0413578021	
#timeindex 91
-2.0418487828	-0.5554538485	10.9781983342	0.0407399003	-0.0433958367	0.9982269591	975.0738023924	11.1138800526	-39.3118148097	-10.0140859657	1039.9429504878	45.6180499928	0.0000000000	0.0000000000	0.0106666667	0.0100000000	640	360	-0.0000000000	-0.0000000000	10.4099117608	36.3078718722	0.9991234762	0.0113879980	-0.0402814197	-0.0096197607	0.9989930505	0.0438217451	
#timeindex 92
-2.0630158874	-0.5548595733	11.0985494965	0.0407091449	-0.0451435736	0.9981507017	975.0770978384	10.9636410224	-39.2722430222	-9.7818416911	1039.8641374326	47.4291042178	0.0000000000	0.0000000000	0.0106666667	0.0100000000	640	360	-0.0000000000	-0.0000000000	10.4099117608	36.3078718722	0.9991268529	0.0112340534	-0.0402408719	-0.0093966615	0.9989173408	0.0455614853	
#timeindex 93
-2.0765307724	-0.5679287625	11.2385049332	0.0371263106	-0.0527882758	0.9979153446	975.2413429348	7.3300066005	-35.8950032642	-5.7812167789	1039.5103465079	55.2036747673	0.0000000000	0.0000000000	0.0106666667	0.0100000000	640	360	-0.0000000000	0.0000000000	10.4099117608	36.3078718722	0.9992951491	0.0075107973	-0.0367803343	-0.0055535694	0.9985774812	0.0530299161	
#timeindex 94
-2.0942694160	-0.5737427750	11.3647182497	0.0315323285	-0.0587771752	0.9977729982	975.4360435426	5.7271729967	-30.4890418486	-4.1838494067	1039.1734786187	61.3482307150	0.0000000000	0.0000000000	0.0106666667	0.0100000000	640	360	-0.0000000000	0.0000000000	10.4099117608	36.3078718722	0.9994946519	0.0058684307	-0.0312410378	-0.0040191017	0.9982538781	0.0589325175	
#timeindex 95
-2.1227249961	-0.5805883132	11.5208885573	0.0282989098	-0.0614181928	0.9977108686	975.5245398308	6.8843605459	-27.2458252437	-5.5415594585	1038.9999606585	64.1170924364	0.0000000000	0.0000000000	0.0106666667	0.0100000000	640	360	0.0000000000	0.0000000000	10.4099117608	36.3078718722	0.9995853309	0.0070541596	-0.0279178290	-0.0053233491	0.9980871928	0.0615923496	
#timeindex 96
-2.1446293365	-0.5889282318	11.6491102268	0.0286977452	-0.0601907745	0.9977742781	975.5207837969	5.2405693996	-27.7415579615	-3.7963941230	1039.0887104137	62.7922603080	0.0000000000	0.0000000000	0.0106666667	0.0100000000	640	360	0.0000000000	0.0000000000	10.4099117608	36.3078718722	0.9995814822	0.0053698252	-0.0284257887	-0.0036469033	0.9981724478	0.0603196855	
#timeindex 97
-2.1508432716	-0.6013286122	11.7998331843	0.0314434563	-0.0556473294	0.9979552514	975.4447228027	-0.2345460787	-30.7472758119	2.0747416276	1039.3781164728	57.8917534433	0.0000000000	0.0000000000	0.0106666667	0.0100000000	640	360	0.0000000000	0.0000000000	10.4099117608	36.3078718722	0.9995035452	-0.0002403310	-0.0315056409	0.0019930444	0.9984504579	0.0556121462	
#timeindex 98
-2.1642956324	-0.6113239036	11.9209777485	0.0311356087	-0.0490326916	0.9983117594	975.4381756821	-4.4131420849	-30.6389755747	6.3018699502	1039.7283888477	50.8703502202	0.0000000000	0.0000000000	0.0106666667	0.0100000000	640	360	0.0000000000	0.0000000000	10.4099117608	36.3078718722	0.9994968366	-0.0045219899	-0.0313946695	0.0060537208	0.9987869376	0.0488672252	
#timeindex 99
-2.1826267547	-0.6202391115	12.0626943294	0.0268270297	-0.0433314133	0.9987005052	975.5453685231	-6.8374728310	-26.5017007719	8.5087399679	1039.9878552666	44.8942191627	0.0000000000	0.0000000000	0.0106666667	0.0100000000	640	360	0.0000000000	0.0000000000	10.4099117608	36.3078718722	0.9996066733	-0.0070061154	-0.0271553510	0.0081736908	0.9990361870	0.0431264166	
#timeindex 100
-2.1999109984	-0.6326337142	12.1807522505	0.0247172109	-0.0425157337	0.9987900039	975.5302066446	-12.9940044735	-24.6947159768	14.9634087961	1039.9575502910	43.8978206994	0.0000000000	0.0000000000	0.0106666667	0.0100000000	640	360	0.0000000000	0.0000000000	10.4099117608	36.3078718722	0.9995911374	-0.0133144946	-0.0253037979	0.0143741937	0.9990070754	0.0421692534	
#timeindex 101
-2.2165120517	-0.6466445089	12.2908871980	0.0268161013	-0.0413797663	0.9987835660	975.3843673846	-18.3569390727	-26.9483928095	20.7463757472	1039.9152293162	42.5268433086	0.0000000000	0.0000000000	0.0106666667	0.0100000000	640	360	0.0000000000	0.0000000000	10.4099117608	36.3078718722	0.9994417011	-0.0188097032	-0.0276130605	0.0199294444	0.9989664209	0.0408522611	
#timeindex 102
-2.2416391857	-0.6484023238	12.4166010886	0.0285739081	-0.0388578010	0.9988361242	975.2773370018	-21.1422265772	-28.7224548310	23.7159584916	1039.9604780091	39.7792177395	0.0000000000	0.0000000000	0.0106666667	0.0100000000	640	360	0.0000000000	-0.0000000000	10.4099117608	36.3078718722	0.9993320309	-0.0216636883	-0.0294308788	0.0227820937	0.9990098878	0.0382128289	
#timeindex 103
-2.2692533482	-0.6467754520	12.5730865008	0.0294182171	-0.0380426264	0.9988429942	975.2422603369	-21.6192861454	-29.5465284755	24.2328533870	1039.9819792916	38.8957611768	0.0000000000	0.0000000000	0.0106666667	0.0100000000	640	360	0.0000000000	0.0000000000	10.4099117608	36.3078718722	0.9992960891	-0.0221525143	-0.0302752778	0.0232786348	0.9990305424	0.0373641603	
#timeindex 104
-2.2933533592	-0.6477871789	12.6964768084	0.0316845620	-0.0382685098	0.9987650423	975.1789231013	-21.3447474684	-31.7541638194	24.0358102809	1039.9794508157	39.0851682531	0.0000000000	0.0000000000	0.0106666667	0.0100000000	640	360	0.0000000000	0.0000000000	10.4099117608	36.3078718722	0.9992311897	-0.0218712042	-0.0325373633	0.0230893506	0.9990281135	0.0375461091	
#timeindex 105
-2.3128987766	-0.6494533909	12.8234769496	0.0308934988	-0.0405766888	0.9986987154	975.2496720002	-19.1878296863	-30.9477249705	21.7798582006	1039.9324566270	41.5782647854	0.0000000000	0.0000000000	0.0106666667	0.0100000000	640	360	0.0000000000	0.0000000000	10.4099117608	36.3078718722	0.9993036836	-0.0196610872	-0.0317110341	0.0209222313	0.9989829698	0.0399410348	
#timeindex 106
-2.3483326311	-0.6550582257	12.9483237193	0.0282197359	-0.0450553905	0.9985858292	975.3871240285	-16.0495524290	-28.2882903620	18.4548219634	1039.7931180054	46.3931025806	0.0000000000	0.0000000000	0.0106666667	0.0100000000	640	360	0.0000000000	0.0000000000	10.4099117608	36.3078718722	0.9994445258	-0.0164454061	-0.0289860059	0.0177281253	0.9988491179	0.0445662784	
#timeindex 107
-2.3825138005	-0.6582316677	13.0963474118	0.0310541291	-0.0468212561	0.9984204580	975.3572302721	-12.6302118367	-30.9290855065	14.9956272231	1039.7622276499	48.2935791681	0.0000000000	0.0000000000	0.0106666667	0.0100000000	640	360	-0.0000000000	0.0000000000	10.4099117608	36.3078718722	0.9994138947	-0.0129417293	-0.0316919349	0.0144051435	0.9988194440	0.0463919198	
#timeindex 108
-2.4226112812	-0.6590275679	13.2328937548	0.0418950616	-0.0438678380	0.9981585128	975.0416300982	-5.9476849642	-41.1861851176	8.2597133586	1039.9697078917	45.3587089226	0.0000000000	0.0000000000	0.0106666667	0.0100000000	640	360	0.0000000000	0.0000000000	10.4099117608	36.3078718722	0.9990905104	-0.0060943814	-0.0422020203	0.0079344701	0.9990187542	0.0435726161	
#timeindex 109
-2.4672053032	-0.6649742326	13.3682551399	0.0534002121	-0.0459682339	0.9975145808	974.5364916246	1.6718388017	-52.0930770106	0.7754060468	1039.8892173192	47.8794645013	0.0000000000	0.0000000000	0.0106666667	0.0100000000	640	360	0.0000000000	0.0000000000	10.4099117608	36.3078718722	0.9985729130	0.0017130738	-0.0533779249	0.0007448728	0.9989414331	0.0459941118	
#timeindex 110
-2.5044922052	-0.6689988531	13.4803762113	0.0592293949	-0.0533939519	0.9968154115	974.2106067428	6.2996056661	-57.5488132250	-3.4205711480	1039.4845101597	55.8827478143	0.0000000000	0.0000000000	0.0106666667	0.0100000000	640	360	-0.0000000000	-0.0000000000	10.4099117608	36.3078718722	0.9982389903	0.0064549821	-0.0589682239	-0.0032858791	0.9985526622	0.0536822493	
#timeindex 111
-2.5324146448	-0.6763947772	13.6325779959	0.0602359785	-0.0575213905	0.9965254219	974.1425298269	8.7165017728	-58.3798887010	-5.6833314499	1039.2259896218	60.3296851514	0.0000000000	0.0000000000	0.0106666667	0.0100000000	640	360	0.0000000000	0.0000000000	10.4099117608	36.3078718722	0.9981692343	0.0089314896	-0.0598197974	-0.0054595385	0.9983043214	0.0579540793	
#timeindex 112
-2.5673679666	-0.6895173961	13.7779981719	0.0573885607	-0.0537104280	0.9969060854	974.2412208689	15.4691880473	-55.2503846718	-13.2840596179	1039.3575911985	56.7623118825	0.0000000000	0.0000000000	0.0106666667	0.0100000000	640	360	-0.0000000000	0.0000000000	10.4099117608	36.3078718722	0.9982703595	0.0158507273	-0.0566131059	-0.0127609724	0.9984307409	0.0545271787	
#timeindex 113
-2.5954019211	-0.6977938690	13.9026121883	0.0558296814	-0.0478956135	0.9972908587	974.2212680668	21.6492290897	-53.4984948524	-20.2967840406	1039.5400202009	51.0609011922	0.0000000000	0.0000000000	0.0106666667	0.0100000000	640	360	0.0000000000	0.0000000000	10.4099117608	36.3078718722	0.9982499146	0.0221831957	-0.0548180066	-0.0194975563	0.9986059864	0.0490502728	
#timeindex 114
-2.6252677733	-0.7061638914	14.0266870249	0.0559478039	-0.0421643520	0.9975429869	974.1830520248	22.9094746568	-53.6693054171	-21.9629379094	1039.7782946714	45.1813674063	0.0000000000	0.0000000000	0.0106666667	0.0100000000	640	360	0.0000000000	0.0000000000	10.4099117608	36.3078718722	0.9982107560	0.0234745246	-0.0549930301	-0.0210981019	0.9988348783	0.0434022578	
#timeindex 115
-2.6419916703	-0.7277472110	14.1365746134	0.0550368861	-0.0377330078	0.9977710966	974.2353295017	22.5003408999	-52.8877550614	-21.8182141252	1039.9729391558	40.5324564775	0.0000000000	0.0000000000	0.0106666667	0.0100000000	640	360	0.0000000000	0.0000000000	10.4099117608	36.3078718722	0.9982643228	0.0230552998	-0.0541922033	-0.0209590769	0.9990218583	0.0389364073	
#timeindex 116
-2.6723147901	-0.7409171685	14.2622967394	0.0545284628	-0.0365097669	0.9978445188	974.2655456633	22.2738434134	-52.4249907814	-21.6659289279	1040.0258013254	39.2370841593	0.0000000000	0.0000000000	0.0106666667	0.0100000000	640	360	-0.0000000000	0.0000000000	10.4099117608	36.3078718722	0.9982952843	0.0228232158	-0.0537180251	-0.0208127883	0.9990726389	0.0376920430	
#timeindex 117
-2.6988900812	-0.7391314954	14.4164876353	0.0541073468	-0.0358645127	0.9978908416	974.2886703360	22.1879980500	-52.0301530168	-21.6268415595	1040.0522183882	38.5524502733	0.0000000000	0.0000000000	0.0106666667	0.0100000000	640	360	-0.0000000000	0.0000000000	10.4099117608	36.3078718722	0.9983189793	0.0227352532	-0.0533134489	-0.0207752400	0.9990980157	0.0370343680	
#timeindex 118
-2.7463779305	-0.7466746906	14.5150176585	0.0516303182	-0.0319704115	0.9981543984	974.4101272634	22.2174249433	-49.6905135894	-21.9603138802	1040.1891108253	34.4526777889	0.0000000000	0.0000000000	0.0106666667	0.0100000000	640	360	0.0000000000	0.0000000000	10.4099117608	36.3078718722	0.9984434319	0.0227654058	-0.0509161035	-0.0210955812	0.9992295177	0.0330960325	
#timeindex 119
-2.7645077386	-0.7490040968	14.6747721420	0.0486565040	-0.0298505367	0.9983694156	974.5032592904	24.3791203886	-46.7644453281	-24.4729860111	1040.2022868670	32.2940245960	0.0000000000	0.0000000000	0.0106666667	0.0100000000	640	360	-0.0000000000	0.0000000000	10.4099117608	36.3078718722	0.9985388610	0.0249804184	-0.0479178654	-0.0235093117	0.9992421749	0.0310223807	
#timeindex 120
-2.7990386850	-0.7447114001	14.8473889705	0.0472744928	-0.0305583103	0.9984143989	974.5112207065	26.6693320314	-45.3264235459	-26.9247426093	1040.1160729231	33.1095417460	0.0000000000	0.0000000000	0.0106666667	0.0100000000	640	360	0.0000000000	0.0000000000	10.4099117608	36.3078718722	0.9985470188	0.0273271168	-0.0464443755	-0.0258645253	0.9991593558	0.0318057852	
#timeindex 121
-2.8284853662	-0.7454941336	15.0029338309	0.0453717227	-0.0328046665	0.9984314001	974.5396598191	28.8462532518	-43.3382318328	-29.2045960312	1039.9758156929	35.4968029083	0.0000000000	0.0000000000	0.0106666667	0.0100000000	640	360	-0.0000000000	0.0000000000	10.4099117608	36.3078718722	0.9985761593	0.0295577307	-0.0444071461	-0.0280546048	0.9990246215	0.0340990430	
#timeindex 122
-2.8512188243	-0.7452206327	15.1270650205	0.0448526400	-0.0373947050	0.9982934823	974.5137136985	30.7121894390	-42.6337947985	-31.0032003865	1039.7471221443	40.3404540195	0.0000000000	0.0000000000	0.0106666667	0.0100000000	640	360	-0.0000000000	0.0000000000	10.4099117608	36.3078718722	0.9985495732	0.0314696892	-0.0436853345	-0.0297823854	0.9988049333	0.0387519654	
#timeindex 123
-2.8772382380	-0.7462504919	15.2611640075	0.0461328672	-0.0420230116	0.9980510133	974.4190909980	32.2015685337	-43.6846804731	-32.3232493519	1039.5042780482	45.2624805221	0.0000000000	0.0000000000	0.0106666667	0.0100000000	640	360	-0.0000000000	-0.0000000000	10.4099117608	36.3078718722	0.9984526167	0.0329958030	-0.0447621398	-0.0310504547	0.9985716516	0.0434801769	
#timeindex 124
-2.8940470743	-0.7475685950	15.3872063776	0.0510126726	-0.0444067439	0.9977102527	974.2434257883	30.6660051950	-48.4479169728	-30.3406651220	1039.4497197432	47.8158220463	0.0000000000	0.0000000000	0.0106666667	0.0100000000	640	360	0.0000000000	0.0000000000	10.4099117608	36.3078718722	0.9982726188	0.0314223658	-0.0496428589	-0.0291459388	0.9985192417	0.0459329754	
#timeindex 125
-2.9057762981	-0.7481542504	15.5333384475	0.0543292182	-0.0438174918	0.9975612079	974.3366859109	19.4991818698	-52.2078693294	-18.3082768361	1039.7833536059	46.6691893610	0.0000000000	0.0000000000	0.0106666667	0.0100000000	640	360	0.0000000000	-0.0000000000	10.4099117608	36.3078718722	0.9983681792	0.0199801188	-0.0534955485	-0.0175873506	0.9988397380	0.0448314937	
#timeindex 126
-2.9185186767	-0.7544118600	15.6524102215	0.0566493420	-0.0418873049	0.9975150654	974.3192798320	11.4520413059	-54.8511524307	-9.7344179033	1040.0058046462	44.2243833468	0.0000000000	0.0000000000	0.0106666667	0.0100000000	640	360	0.0000000000	0.0000000000	10.4099117608	36.3078718722	0.9983503438	0.0117344998	-0.0562040268	-0.0093511051	0.9990534296	0.0424829570	
#timeindex 127
-2.9343598250	-0.7647931781	15.7890322722	0.0637483059	-0.0405190982	0.9971430971	973.9222162790	9.0769930441	-61.8949275859	-6.9793432620	1040.0912126885	42.7104990355	0.0000000000	0.0000000000	0.0106666667	0.0100000000	640	360	0.0000000000	-0.0000000000	10.4099117608	36.3078718722	0.9979434868	0.0093008722	-0.0634215329	-0.0067045172	0.9991354745	0.0410286850	
#timeindex 128
-2.9496331528	-0.7783532706	15.9448732888	0.0678772325	-0.0378175056	0.9969766886	973.6735522308	5.5958014364	-66.0784224838	-3.2852933050	1040.2293912674	39.6818480343	0.0000000000	0.0000000000	0.0106666667	0.0100000000	640	360	0.0000000000	0.0000000000	10.4099117608	36.3078718722	0.9976886896	0.0057338189	-0.0677082114	-0.0031559281	0.9992682120	0.0381192934	
#timeindex 129
-2.9677140559	-0.7956160421	16.0926496032	0.0643255559	-0.0356907189	0.9972905271	973.9080278651	2.0581548845	-62.7437206729	0.1992428030	1040.3256268486	37.2179942582	0.0000000000	0.0000000000	0.0106666667	0.0100000000	640	360	0.0000000000	0.0000000000	10.4099117608	36.3078718722	0.9979289485	0.0021089182	-0.0642912610	0.0001913972	0.9993606581	0.0357524589	
#timeindex 130
-3.0032928252	-0.8051066959	16.3963103762	0.0548266296	-0.0340405768	0.9979154673	974.4611450047	1.2365327926	-53.4958417845	0.6262123872	1040.3870352629	35.4549486964	0.0000000000	0.0000000000	0.0106666667	0.0100000000	640	360	0.0000000000	0.0000000000	10.4099117608	36.3078718722	0.9984957080	0.0012670312	-0.0548152881	0.0006015540	0.9994196485	0.0340588369	
#timeindex 131
-3.0339399266	-0.8155486526	16.6025152274	0.0467317671	-0.0321254242	0.9983907547	974.8628003988	0.8430570901	-45.6033647745	0.6648821692	1040.4534750300	33.4477637788	0.0000000000	0.0000000000	0.0106666667	0.0100000000	640	360	-0.0000000000	0.0000000000	10.4099117608	36.3078718722	0.9989072700	0.0008638506	-0.0467281474	0.0006387011	0.9994834720	0.0321306890	
#timeindex 132
-3.0622325594	-0.8239905994	16.7246370051	0.0421868517	-0.0319792917	0.9985978142	975.0600321416	0.4758889431	-41.1772324859	0.8977035407	1040.4586182145	33.2819257800	0.0000000000	0.0000000000	0.0106666667	0.0100000000	640	360	0.0000000000	0.0000000000	10.4099117608	36.3078718722	0.9991093663	0.0004876265	-0.0421928469	0.0008623546	0.9994884127	0.0319713813	
#timeindex 133
-3.0875740798	-0.8300226251	16.8395125358	0.0390799062	-0.0323858869	0.9987111270	975.1837017556	1.3050342143	-38.1169508399	-0.0734943256	1040.4441820910	33.7420690488	0.0000000000	0.0000000000	0.0106666667	0.0100000000	640	360	0.0000000000	0.0000000000	10.4099117608	36.3078718722	0.9992360862	0.0013372222	-0.0390570850	-0.0000706003	0.9994745450	0.0324134054	
#timeindex 134
-3.1185439091	-0.8337842361	16.9792349980	0.0367008680	-0.0321768620	0.9988081377	975.2711657944	2.2120595068	-35.7647478427	-1.1292007241	1040.4494657108	33.5598402846	0.0000000000	0.0000000000	0.0106666667	0.0100000000	640	360	0.0000000000	-0.0000000000	10.4099117608	36.3078718722	0.9993257075	0.0022666188	-0.0366468662	-0.0010847361	0.9994796206	0.0322383523	
#timeindex 135
-3.1476834659	-0.8354159565	17.1068758117	0.0347441484	-0.0323223733	0.9988734196	975.3356554012	4.0081623208	-33.7957269997	-3.1053746131	1040.4384694430	33.7753848808	0.0000000000	0.0000000000	0.0106666667	0.0100000000	640	360	-0.0000000000	0.0000000000	10.4099117608	36.3078718722	0.9993917877	0.0041070215	-0.0346292805	-0.0029830941	0.9994690573	0.0324454094	
#timeindex 136
-3.1853483650	-0.8349532603	17.2692505999	0.0336036882	-0.0336750530	0.9988677505	975.3650376391	6.1448284202	-32.6058531619	-5.3758582467	1040.3801151637	35.2554221677	0.0000000000	0.0000000000	0.0106666667	0.0100000000	640	360	0.0000000000	0.0000000000	10.4099117608	36.3078718722	0.9994218946	0.0062963873	-0.0334100591	-0.0051641727	0.9994130009	0.0338671672	
#timeindex 137
-3.2121510813	-0.8310946305	17.4077047601	0.0308730348	-0.0367993381	0.9988456660	975.4428963807	7.5268845223	-29.8723808090	-6.8468396169	1040.2551045440	38.5365661349	0.0000000000	0.0000000000	0.0106666667	0.0100000000	640	360	-0.0000000000	0.0000000000	10.4099117608	36.3078718722	0.9995016737	0.0077125311	-0.0306091671	-0.0065772312	0.9992929128	0.0370191093	
#timeindex 138
-3.2423643454	-0.8307811486	17.5402662584	0.0295150041	-0.0377305428	0.9988519764	975.4679336771	9.4792735922	-28.4659615227	-8.9539786475	1040.2007961601	39.5570297973	0.0000000000	0.0000000000	0.0106666667	0.0100000000	640	360	-0.0000000000	0.0000000000	10.4099117608	36.3078718722	0.9995273285	0.0097130748	-0.0291680592	-0.0086013973	0.9992407429	0.0379993901	
#timeindex 139
-3.2750807130	-0.8302311672	17.6972827459	0.0295981039	-0.0359851327	0.9989139215	975.3966469091	15.3496285512	-28.3483214176	-15.2670288434	1040.1881025070	37.9243708620	0.0000000000	0.0000000000	0.0106666667	0.0100000000	640	360	-0.0000000000	0.0000000000	10.4099117608	36.3078718722	0.9994542835	0.0157282189	-0.0290475176	-0.0146658581	0.9992285491	0.0364310205	
#timeindex 140
-3.3087599542	-0.8307204497	17.8371306520	0.0322273413	-0.0365031830	0.9988137545	975.1686483011	23.3883220019	-30.6096551760	-23.7261097231	1039.9982150952	38.7738699174	0.0000000000	0.0000000000	0.0106666667	0.0100000000	640	360	0.0000000000	0.0000000000	10.4099117608	36.3078718722	0.9992206615	0.0239651825	-0.0313646259	-0.0227918452	0.9990461389	0.0372470688	
#timeindex 141
-3.3534327663	-0.8402640124	17.9297945361	0.0380048742	-0.0404230313	0.9984596176	974.9327691051	25.3362573350	-36.0836114425	-25.4278622457	1039.7891765228	43.0641484267	0.0000000000	0.0000000000	0.0106666667	0.0100000000	640	360	0.0000000000	0.0000000000	10.4099117608	36.3078718722	0.9989789644	0.0259611626	-0.0369735944	-0.0244265877	0.9988453317	0.0413684087	
#timeindex 142
-3.3853877036	-0.8466798016	18.0624712414	0.0402502946	-0.0445519968	0.9981958893	974.8908450224	23.7166544220	-38.2520302737	-23.4343067957	1039.6498021159	47.3471318833	0.0000000000	0.0000000000	0.0106666667	0.0100000000	640	360	0.0000000000	0.0000000000	10.4099117608	36.3078718722	0.9989360063	0.0243016130	-0.0391954961	-0.0225115326	0.9987114454	0.0454827408	
#timeindex 143
-3.4122645343	-0.8549769889	18.1954154422	0.0367009667	-0.0449235199	0.9983160403	974.9215887011	27.7322618810	-34.5929871645	-27.8736246634	1039.5194198896	47.8023576063	0.0000000000	0.0000000000	0.0106666667	0.0100000000	640	360	-0.0000000000	0.0000000000	10.4099117608	36.3078718722	0.9989675083	0.0284162633	-0.0354462047	-0.0267760432	0.9985861972	0.0459200411	
#timeindex 144
-3.4548009572	-0.8827421150	18.3147794387	0.0309649320	-0.0444155877	0.9985331384	974.9168842592	33.9093277418	-28.7242668131	-34.7560344123	1039.3346785353	47.3082734627	0.0000000000	0.0000000000	0.0106666667	0.0100000000	640	360	0.0000000000	0.0000000000	10.4099117608	36.3078718722	0.9989626878	0.0347456832	-0.0294327355	-0.0333874438	0.9984087305	0.0454454126	
#timeindex 145
-3.4898459638	-0.8847153439	18.4915844554	0.0252344576	-0.0394568227	0.9989025885	974.9820074676	36.1893705830	-23.2006852636	-37.5831793349	1039.4640082160	42.0084387561	0.0000000000	0.0000000000	0.0106666667	0.0100000000	640	360	0.0000000000	0.0000000000	10.4099117608	36.3078718722	0.9990294172	0.0370819621	-0.0237729178	-0.0361032641	0.9985329675	0.0403542698	
#timeindex 146
-3.5144945538	-0.8985971641	18.5936739910	0.0193128209	-0.0336356890	0.9992475446	975.1269569201	35.4059598102	-17.6548328543	-37.1045183327	1039.7164607957	35.7150464359	0.0000000000	0.0000000000	0.0106666667	0.0100000000	640	360	0.0000000000	0.0000000000	10.4099117608	36.3078718722	0.9991779418	0.0362792289	-0.0180902799	-0.0356434513	0.9987754793	0.0343086928	
#timeindex 147
-3.5417764675	-0.9108258379	18.7239220795	0.0155854314	-0.0319754222	0.9993671331	975.2101152949	34.7033880072	-14.0983372371	-36.5126667686	1039.8001768042	33.8385306355	0.0000000000	0.0000000000	0.0106666667	0.0100000000	640	360	0.0000000000	0.0000000000	10.4099117608	36.3078718722	0.9992631512	0.0355593285	-0.0144460652	-0.0350749052	0.9988558988	0.0325060687	
#timeindex 148
-3.5653128946	-0.9161386940	18.8330211785	0.0150327234	-0.0314941187	0.9993908833	975.3164634204	31.7615022170	-13.6696884952	-33.3990836955	1039.9230662052	33.2738073394	0.0000000000	0.0000000000	0.0106666667	0.0100000000	640	360	-0.0000000000	-0.0000000000	10.4099117608	36.3078718722	0.9993721224	0.0325448827	-0.0140068441	-0.0320839258	0.9989739492	0.0319635825	
#timeindex 149
-3.5889709537	-0.9202722812	18.9704218149	0.0153167518	-0.0286955610	0.9994708409	975.3960740161	29.0020496018	-14.1151386226	-30.4871051556	1040.1025412549	30.3293383783	0.0000000000	0.0000000000	0.0106666667	0.0100000000	640	360	-0.0000000000	0.0000000000	10.4099117608	36.3078718722	0.9994536965	0.0297173696	-0.0144632810	-0.0292866125	0.9991463570	0.0291350581	
#timeindex 150
-3.6121393568	-0.9239549955	19.0712463833	0.0136432758	-0.0259089346	0.9995712021	975.4173897418	28.9994992811	-12.5619288409	-30.5723713763	1040.1818866229	27.3788517331	0.0000000000	0.0000000000	0.0106666667	0.0100000000	640	360	-0.0000000000	0.0000000000	10.4099117608	36.3078718722	0.9994755380	0.0297147564	-0.0128717621	-0.0293685212	0.9992225780	0.0263007529	
#timeindex 151
-3.6366717534	-0.9298725347	19.2099082302	0.0106090588	-0.0245048940	0.9996434154	975.4312376458	29.6498221674	-9.6252737930	-31.3636087300	1040.1978976311	25.8318888845	0.0000000000	0.0000000000	0.0106666667	0.0100000000	640	360	-0.0000000000	0.0000000000	10.4099117608	36.3078718722	0.9994897274	0.0303811192	-0.0098626760	-0.0301286019	0.9992379585	0.0248147049	
#timeindex 152
-3.6572181010	-0.9371604496	19.3348739326	0.0103357473	-0.0230822720	0.9996801394	975.4244960979	29.9444598750	-9.3935595189	-31.6992609334	1040.2235580396	24.3461460590	0.0000000000	0.0000000000	0.0106666667	0.0100000000	640	360	-0.0000000000	0.0000000000	10.4099117608	36.3078718722	0.9994828196	0.0306830240	-0.0096252466	-0.0304510371	0.9992626085	0.0233874663	
#timeindex 153
-3.6797727581	-0.9386501874	19.4718478048	0.0124454538	-0.0242542457	0.9996283521	975.3559506516	31.4502524397	-11.3801746657	-33.2400495637	1040.1440992689	25.6511312255	0.0000000000	0.0000000000	0.0106666667	0.0100000000	640	360	-0.0000000000	0.0000000000	10.4099117608	36.3078718722	0.9994125835	0.0322259561	-0.0116608606	-0.0319311540	0.9991862786	0.0246410650	
#timeindex 154
-3.7016845987	-0.9408659381	19.5988614206	0.0147959127	-0.0280888610	0.9994959214	975.3079001418	32.0799880158	-13.5363036032	-33.7958376842	1040.0176535999	29.7279368271	0.0000000000	0.0000000000	0.0106666667	0.0100000000	640	360	-0.0000000000	0.0000000000	10.4099117608	36.3078718722	0.9993633479	0.0328712238	-0.0138701693	-0.0324650568	0.9990648120	0.0285573380	
#timeindex 155
-3.7190411717	-0.9459953740	19.7280380573	0.0145586361	-0.0324418028	0.9993675878	975.3458804654	31.0485100080	-13.2007844795	-32.6406584585	1039.9159949360	34.2336028445	0.0000000000	0.0000000000	0.0106666667	0.0100000000	640	360	-0.0000000000	0.0000000000	10.4099117608	36.3078718722	0.9994022650	0.0318143049	-0.0135263748	-0.0313553652	0.9989671563	0.0328855841	
#timeindex 156
-3.7365291545	-0.9485324091	19.8455745026	0.0111688440	-0.0366323557	0.9992663946	975.4317133739	29.5707416453	-9.8184015185	-31.1353356942	1039.8141777374	38.4668080263	0.0000000000	0.0000000000	0.0106666667	0.0100000000	640	360	0.0000000000	0.0000000000	10.4099117608	36.3078718722	0.9994902149	0.0303000882	-0.0100605671	-0.0299093176	0.9988693484	0.0369520981	
#timeindex 157
-3.7248645768	-0.9640441795	19.9542031177	0.0049262644	-0.0460809305	0.9989255627	975.5593844329	26.6253312710	-3.5827929036	-28.1937339632	1039.4974472579	48.0915707968	0.0000000000	0.0000000000	0.0106666667	0.0100000000	640	360	0.0000000000	0.0000000000	10.4099117608	36.3078718722	0.9996210349	0.0272820308	-0.0036711606	-0.0270835475	0.9985650898	0.0461978659	
#timeindex 158
-3.7351885620	-0.9646479192	20.0703599582	-0.0000745467	-0.0560611564	0.9984273340	975.6812382384	21.9607176507	1.3059308044	-23.4660189513	1039.0900424949	58.3425934861	0.0000000000	0.0000000000	0.0106666667	0.0100000000	640	360	0.0000000000	-0.0000000000	10.4099117608	36.3078718722	0.9997458941	0.0225023670	0.0013381409	-0.0225419960	0.9981737275	0.0560452335	
#timeindex 159
-3.7464772572	-0.9713874598	20.2113950700	-0.0010510913	-0.0631915291	0.9980008647	975.7824283439	16.7969186333	2.0912401055	-18.0218538449	1038.7561656461	65.7530971765	0.0000000000	0.0000000000	0.0106666667	0.0100000000	640	360	0.0000000000	0.0000000000	10.4099117608	36.3078718722	0.9998495800	0.0172112056	0.0021428194	-0.0173122062	0.9978529977	0.0631639333	
#timeindex 160
-3.7545364447	-0.9799415992	20.3444653320	-0.0005731260	-0.0643798438	0.9979253014	975.8853790029	9.1790894581	1.1526450469	-9.8498695706	1038.7854630608	67.0102266461	0.0000000000	0.0000000000	0.0106666667	0.0100000000	640	360	-0.0000000000	0.0000000000	10.4099117608	36.3078718722	0.9999550699	0.0094054868	0.0011810744	-0.0094620106	0.9978811415	0.0643715607	
#timeindex 161
-3.7722954298	-0.9850335397	20.4874770776	-0.0021658216	-0.0593511564	0.9982348168	975.9197408396	3.6161497149	2.3324078023	-3.9980774915	1039.1489229684	61.7750754126	0.0000000000	0.0000000000	0.0106666667	0.0100000000	640	360	-0.0000000000	-0.0000000000	10.4099117608	36.3078718722	0.9999902793	0.0037053401	0.0023899354	-0.0038406449	0.9982302894	0.0593425543	
#timeindex 162
-3.7962693075	-0.9880124571	20.6182142652	-0.0083204392	-0.0519641476	0.9986142887	975.8840820442	4.2812535029	8.3538318475	-5.0233820506	1039.5747157644	54.0537200234	0.0000000000	0.0000000000	0.0106666667	0.0100000000	640	360	0.0000000000	-0.0000000000	10.4099117608	36.3078718722	0.9999537410	0.0043868483	0.0085598746	-0.0048255760	0.9986393157	0.0519252432	
#timeindex 163
-3.8277938221	-0.9883706284	20.8136204030	-0.0178825949	-0.0483118817	0.9986722059	975.7392984145	7.2788221069	17.8240709068	-8.6722898503	1039.7466220786	50.1436131223	0.0000000000	0.0000000000	0.0106666667	0.0100000000	640	360	0.0000000000	-0.0000000000	10.4099117608	36.3078718722	0.9998053863	0.0074583504	0.0182636921	-0.0083308005	0.9988044529	0.0481691049	
#timeindex 164
-3.8413775369	-0.9949350115	20.9000261700	-0.0241755408	-0.0494860800	0.9984821837	975.6189243193	5.8193828767	23.9103851566	-7.4600334464	1039.6972378459	51.3481274131	0.0000000000	0.0000000000	0.0106666667	0.0100000000	640	360	0.0000000000	0.0000000000	10.4099117608	36.3078718722	0.9996820433	0.0059629148	0.0245001220	-0.0071662792	0.9987570133	0.0493261889	
#timeindex 165
-3.8584629796	-0.9967947711	21.0205536593	-0.0242675118	-0.0498900867	0.9984598475	975.6321882432	3.1485177411	23.8700089069	-4.6235150486	1039.6894204148	51.8378323077	0.0000000000	0.0000000000	0.0106666667	0.0100000000	640	360	0.0000000000	0.0000000000	10.4099117608	36.3078718722	0.9996956344	0.0032261742	0.0244587499	-0.0044414546	0.9987495037	0.0497966107	
#timeindex 166
-3.8812250605	-0.9995842813	21.1453694863	-0.0213743750	-0.0459882533	0.9987132805	975.6990851982	2.7814171627	21.0099045089	-3.9936502078	1039.8855549239	47.7986620182	0.0000000000	0.0000000000	0.0106666667	0.0100000000	640	360	0.0000000000	0.0000000000	10.4099117608	36.3078718722	0.9997641813	0.0028500193	0.0215281026	-0.0038363920	0.9989379150	0.0459164910	
#timeindex 167
-3.8924405610	-0.9994967961	21.2510004912	-0.0176404535	-0.0413038712	0.9989908932	975.7751345594	1.3751881007	17.2873612403	-2.2270243524	1040.1017921039	42.9643002606	0.0000000000	0.0000000000	0.0106666667	0.0100000000	640	360	-0.0000000000	0.0000000000	10.4099117608	36.3078718722	0.9998421064	0.0014091064	0.0177137448	-0.0021393307	0.9991456374	0.0412724923	
#timeindex 168
-3.9166776640	-1.0065633065	21.3550058409	-0.0147800030	-0.0380043713	0.9991682637	975.8211303133	-2.2560684340	14.3488332169	1.8227985011	1040.2363523211	39.5934008069	0.0000000000	0.0000000000	0.0106666667	0.0100000000	640	360	-0.0000000000	0.0000000000	10.4099117608	36.3078718722	0.9998892366	-0.0023117132	0.0147027395	0.0017510220	0.9992748990	0.0380343289	
#timeindex 169
-3.9497353659	-1.0193991504	21.4907799301	-0.0129991837	-0.0372984801	0.9992196178	975.8424990071	-3.3580714687	12.5697141205	3.0790609680	1040.2606559158	38.8705005040	0.0000000000	0.0000000000	0.0106666667	0.0100000000	640	360	-0.0000000000	0.0000000000	10.4099117608	36.3078718722	0.9999111323	-0.0034408965	0.0128797394	0.0029578166	0.9992982456	0.0373398943	
#timeindex 170
-3.9777852569	-1.0163954074	21.6246205757	-0.0107210533	-0.0381561057	0.9992142766	975.8724477899	-1.5598169049	10.4110441973	1.2387695121	1040.2317859854	39.7356961426	0.0000000000	0.0000000000	0.0106666667	0.0100000000	640	360	-0.0000000000	-0.0000000000	10.4099117608	36.3078718722	0.9999418198	-0.0015982890	0.0106678270	0.0011899904	0.9992705125	0.0381710211	
#timeindex 171
-4.0022898405	-1.0249929267	21.7359763524	-0.0071940676	-0.0368292640	0.9992956773	975.9013060092	2.0214007745	7.1001474598	-2.4335682788	1040.2827045615	38.3223304055	0.0000000000	0.0000000000	0.0106666667	0.0100000000	640	360	-0.0000000000	-0.0000000000	10.4099117608	36.3078718722	0.9999713898	0.0020712575	0.0072752688	-0.0023377415	0.9993194260	0.0368133096	
#timeindex 172
-4.0308482861	-1.0261616665	21.8498496162	-0.0028848386	-0.0337084314	0.9994275458	975.8978842738	7.1982582820	3.0597014503	-7.7837603685	1040.3712578207	35.0669024474	0.0000000000	0.0000000000	0.0106666667	0.0100000000	640	360	0.0000000000	0.0000000000	10.4099117608	36.3078718722	0.9999678836	0.0073757995	0.0031351674	-0.0074772587	0.9994044923	0.0336860708	
#timeindex 173
-4.0605100279	-1.0322941358	21.9833236267	-0.0009510836	-0.0321184271	0.9994836177	975.8812980797	9.5926742508	1.2368850041	-10.2692774022	1040.4037830933	33.4236254620	0.0000000000	0.0000000000	0.0106666667	0.0100000000	640	360	0.0000000000	0.0000000000	10.4099117608	36.3078718722	0.9999508884	0.0098292724	0.0012673921	-0.0098649034	0.9994357368	0.0321075012	
#timeindex 174
-4.0867030015	-1.0389804303	22.1032982917	0.0003926582	-0.0323990417	0.9994749361	975.9197187721	4.3011873402	-0.2439766249	-4.5770926221	1040.4345539978	33.7285893971	0.0000000000	0.0000000000	0.0106666667	0.0100000000	640	360	0.0000000000	-0.0000000000	10.4099117608	36.3078718722	0.9999902567	0.0044072738	-0.0002499942	-0.0043968602	0.9994652961	0.0324004566	
#timeindex 175
-4.1030549322	-1.0482331602	22.1921584561	0.0023652686	-0.0319342030	0.9994871746	975.9154110202	4.7231660387	-2.1585785301	-4.9619321538	1040.4480452539	33.2546692781	0.0000000000	0.0000000000	0.0106666667	0.0100000000	640	360	0.0000000000	0.0000000000	10.4099117608	36.3078718722	0.9999858427	0.0048396604	-0.0022118187	-0.0047665458	0.9994782561	0.0319451980	
#timeindex 176
-4.1559050248	-1.0627576686	22.3737754825	0.0068451208	-0.0290013683	0.9995559339	975.7295009341	18.7651099625	-6.1374978985	-19.8173665876	1040.3607727350	30.3210027520	0.0000000000	0.0000000000	0.0106666667	0.0100000000	640	360	-0.0000000000	0.0000000000	10.4099117608	36.3078718722	0.9997953472	0.0192279414	-0.0062888760	-0.0190370169	0.9993944201	0.0291270507	
#timeindex 177
-4.1932822982	-1.0693022950	22.5395201335	0.0127568130	-0.0218661381	0.9996795165	975.3144183524	32.5879911821	-11.7330903869	-34.4757225535	1040.1616245599	23.1915506060	0.0000000000	0.0000000000	0.0106666667	0.0100000000	640	360	-0.0000000000	0.0000000000	10.4099117608	36.3078718722	0.9993700268	0.0333917566	-0.0120224808	-0.0331181698	0.9992031138	0.0222783354	
#timeindex 178
-4.2256466652	-1.0737677031	22.6765236302	0.0142742409	-0.0125015910	0.9998199619	975.1201890782	37.3826042266	-13.4541807180	-39.6881869549	1040.1457904415	13.5724395470	0.0000000000	0.0000000000	0.0106666667	0.0100000000	640	360	-0.0000000000	-0.0000000000	10.4099117608	36.3078718722	0.9991710070	0.0383046262	-0.0137860209	-0.0381253827	0.9991879032	0.0130379967	
#timeindex 179
-4.2498031195	-1.0831487118	22.7973518282	0.0111019859	-0.0106941993	0.9998811829	975.1805918158	36.7667238456	-10.4344903516	-39.0941512670	1040.1926051193	11.5594231703	0.0000000000	0.0000000000	0.0106666667	0.0100000000	640	360	-0.0000000000	0.0000000000	10.4099117608	36.3078718722	0.9992328995	0.0376735554	-0.0106918515	-0.0375547384	0.9992328744	0.0111042470	
#timeindex 180
-4.2758331774	-1.0884752557	22.9163608121	0.0113219326	-0.0134223296	0.9998458156	975.2760356614	34.0946894650	-10.5860115429	-36.2104999026	1040.2618852188	14.3749271315	0.0000000000	0.0000000000	0.0106666667	0.0100000000	640	360	-0.0000000000	0.0000000000	10.4099117608	36.3078718722	0.9993306975	0.0349356167	-0.0108471099	-0.0347846367	0.9992994265	0.0138088847	
#timeindex 181
-4.3012530121	-1.0918703107	23.0431183050	0.0175802944	-0.0142468386	0.9997439476	975.2934708807	31.0053061978	-16.7084969577	-32.8099455537	1040.3599839811	15.4025931514	0.0000000000	0.0000000000	0.0106666667	0.0100000000	640	360	-0.0000000000	-0.0000000000	10.4099117608	36.3078718722	0.9993485627	0.0317700355	-0.0171206031	-0.0315179862	0.9993936624	0.0147960843	
#timeindex 182
-4.3267850217	-1.0943767881	23.1572329713	0.0237292132	-0.0132192483	0.9996310199	975.2244320673	29.2749577706	-22.7627145108	-30.8941332450	1040.4317172819	14.4921660557	0.0000000000	0.0000000000	0.0106666667	0.0100000000	640	360	0.0000000000	-0.0000000000	10.4099117608	36.3078718722	0.9992778211	0.0299970089	-0.0233241447	-0.0296776130	0.9994625710	0.0139215071	
#timeindex 183
-4.3513803574	-1.0970464728	23.2828727914	0.0255109989	-0.0121905477	0.9996002098	975.1980723316	28.7134257639	-24.5380546718	-30.2963350307	1040.4631338791	13.4620872966	0.0000000000	0.0000000000	0.0106666667	0.0100000000	640	360	-0.0000000000	0.0000000000	10.4099117608	36.3078718722	0.9992508112	0.0294216271	-0.0251432727	-0.0291033543	0.9994927506	0.0129319898	
#timeindex 184
-4.3714315633	-1.0954446510	23.4080772841	0.0252161661	-0.0121214490	0.9996085311	975.1864252377	29.3515495366	-24.2441703804	-30.9825971653	1040.4437494478	13.3981931607	0.0000000000	0.0000000000	0.0106666667	0.0100000000	640	360	-0.0000000000	-0.0000000000	10.4099117608	36.3078718722	0.9992388768	0.0300754898	-0.0248421399	-0.0297625935	0.9994741294	0.0128706117	
#timeindex 185
-4.3917910616	-1.0956849034	23.5429612855	0.0249796249	-0.0135801296	0.9995957175	975.1152310825	31.8631432279	-23.9349836016	-33.6269027601	1040.3401556937	14.9739952628	0.0000000000	0.0000000000	0.0106666667	0.0100000000	640	360	-0.0000000000	-0.0000000000	10.4099117608	36.3078718722	0.9991659267	0.0326490306	-0.0245253272	-0.0323027741	0.9993746149	0.0143843633	
#timeindex 186
-4.4159050593	-1.1091828667	23.6523838965	0.0238372049	-0.0173809851	0.9995647498	975.1020244903	33.1608696882	-22.6772084240	-34.9357698039	1040.2327172210	18.9212759436	0.0000000000	0.0000000000	0.0106666667	0.0100000000	640	360	-0.0000000000	0.0000000000	10.4099117608	36.3078718722	0.9991523944	0.0339787648	-0.0232365296	-0.0335601018	0.9992714070	0.0181762117	
#timeindex 187
-4.4352573012	-1.1006551373	23.7933566745	0.0251770119	-0.0227110633	0.9994249975	975.1349621220	31.3157152984	-23.8534871258	-32.8063686693	1040.1864710778	24.4637739025	0.0000000000	0.0000000000	0.0106666667	0.0100000000	640	360	-0.0000000000	0.0000000000	10.4099117608	36.3078718722	0.9991861444	0.0320881007	-0.0244418206	-0.0315145502	0.9992269819	0.0235004623	
#timeindex 188
-4.4510608018	-1.0915850805	23.9139761973	0.0267604264	-0.0280935314	0.9992470331	975.2294079308	26.8746339383	-25.3616478788	-27.8846933087	1040.1853663353	29.9912689466	0.0000000000	0.0000000000	0.0106666667	0.0100000000	640	360	-0.0000000000	-0.0000000000	10.4099117608	36.3078718722	0.9992829197	0.0275374824	-0.0259871794	-0.0267866760	0.9992259207	0.0288103008	
#timeindex 189
-4.4586873481	-1.0911872366	24.0411551916	0.0270084173	-0.0318417644	0.9991279435	975.2695334810	25.1758357559	-25.5611342318	-25.9626340159	1040.1167030448	33.8498796785	0.0000000000	0.0000000000	0.0106666667	0.0100000000	640	360	0.0000000000	-0.0000000000	10.4099117608	36.3078718722	0.9993240349	0.0257967843	-0.0261915859	-0.0249403017	0.9991599611	0.0325169708	
#timeindex 190
-4.4769914001	-1.0859796719	24.1818835006	0.0253423454	-0.0422510547	0.9987855695	975.3386021903	24.2863655325	-23.7200495793	-24.8049859389	1039.7389258321	44.6128619815	0.0000000000	0.0000000000	0.0106666667	0.0100000000	640	360	0.0000000000	-0.0000000000	10.4099117608	36.3078718722	0.9993948072	0.0248853757	-0.0243050919	-0.0238282384	0.9987970597	0.0428561385	
#timeindex 191
-4.4866067926	-1.0983555172	24.2615510020	0.0247402068	-0.0496432152	0.9984605517	975.4543355619	19.7215331350	-23.1896008956	-19.7759642731	1039.4948155633	52.1734446459	0.0000000000	0.0000000000	0.0106666667	0.0100000000	640	360	0.0000000000	-0.0000000000	10.4099117608	36.3078718722	0.9995133950	0.0202079542	-0.0237615600	-0.0189972449	0.9985625618	0.0501190076	
#timeindex 192
-4.4972528257	-1.0931240143	24.3922180712	0.0269973053	-0.0522454068	0.9982692838	975.4224469057	18.5269832545	-25.4098049838	-18.3118642214	1039.3816146573	54.8922891969	0.0000000000	0.0000000000	0.0106666667	0.0100000000	640	360	0.0000000000	0.0000000000	10.4099117608	36.3078718722	0.9994807199	0.0189839414	-0.0260365242	-0.0175907968	0.9984538184	0.0527307920	
#timeindex 193
-4.5183438947	-1.1070601576	24.4962061395	0.0320766526	-0.0505359740	0.9982069944	975.2376143399	20.7896312610	-30.2860369504	-20.5032756921	1039.4245147062	53.2815407602	0.0000000000	0.0000000000	0.0106666667	0.0100000000	640	360	-0.0000000000	0.0000000000	10.4099117608	36.3078718722	0.9992913285	0.0213023964	-0.0310330259	-0.0196959169	0.9984950292	0.0511834701	
#timeindex 194
-4.5346943200	-1.1275198917	24.6028586089	0.0348371592	-0.0441987750	0.9984151645	975.1715409088	19.4526853808	-33.1649824142	-19.1530714433	1039.7668567149	46.6976680745	0.0000000000	0.0000000000	0.0106666667	0.0100000000	640	360	0.0000000000	0.0000000000	10.4099117608	36.3078718722	0.9992236254	0.0199324755	-0.0339829790	-0.0183988797	0.9988238907	0.0448588510	
#timeindex 195
-4.5409032373	-1.1345796178	24.7454045117	0.0334325217	-0.0379756415	0.9987192384	975.2817916167	15.3338643123	-32.0648837780	-15.0363101420	1040.1116779454	40.0529081464	0.0000000000	0.0000000000	0.0106666667	0.0100000000	640	360	0.0000000000	0.0000000000	10.4099117608	36.3078718722	0.9993365954	0.0157120659	-0.0328557470	-0.0144442244	0.9991551339	0.0384757422	
#timeindex 196
-4.5602467928	-1.1447256173	24.8587518981	0.0276990891	-0.0348343626	0.9990091730	975.4850035616	12.6062602370	-26.6072782280	-12.4447168390	1040.2724949450	36.6182189065	0.0000000000	0.0000000000	0.0106666667	0.0100000000	640	360	0.0000000000	0.0000000000	10.4099117608	36.3078718722	0.9995448194	0.0129171869	-0.0272635325	-0.0119546804	0.9993096184	0.0351763010	
#timeindex 197
-4.5728015314	-1.1508621983	24.9937866454	0.0234440524	-0.0321164614	0.9992091419	975.6269766222	8.8802584301	-22.6053250965	-8.6903811783	1040.4110448871	33.6446670980	0.0000000000	0.0000000000	0.0106666667	0.0100000000	640	360	0.0000000000	-0.0000000000	10.4099117608	36.3078718722	0.9996902942	0.0090992853	-0.0231628733	-0.0083481795	0.9994427127	0.0323198389	
#timeindex 198
-4.5890774210	-1.1544717524	25.1088695677	0.0241335268	-0.0278846659	0.9993197778	975.6270548748	6.5708637006	-23.3779976055	-6.3088068263	1040.5627789033	29.1878534604	0.0000000000	0.0000000000	0.0106666667	0.0100000000	640	360	0.0000000000	-0.0000000000	10.4099117608	36.3078718722	0.9996903744	0.0067329305	-0.0239546034	-0.0060603845	0.9995884718	0.0280385215	
#timeindex 199
-4.6061530573	-1.1599396932	25.2278797966	0.0269748693	-0.0238614398	0.9993512836	975.5567793743	6.4419446338	-26.1787851451	-6.2006422753	1040.6720949803	25.0154239790	0.0000000000	0.0000000000	0.0106666667	0.0100000000	640	360	0.0000000000	-0.0000000000	10.4099117608	36.3078718722	0.9996183656	0.0066008318	-0.0268244709	-0.0059564792	0.9996934834	0.0240303900	
#timeindex 200
-4.6265414294	-1.1619034920	25.3483234447	0.0288650251	-0.0219678303	0.9993418958	975.5089066101	5.7841927571	-28.0494824173	-5.5084798775	1040.7216737554	23.0365600140	0.0000000000	0.0000000000	0.0106666667	0.0100000000	640	360	0.0000000000	0.0000000000	10.4099117608	36.3078718722	0.9995693120	0.0059268568	-0.0287413079	-0.0052915721	0.9997411099	0.0221294479	
#timeindex 201
-4.6454097106	-1.1633661036	25.4821127290	0.0292010982	-0.0228585837	0.9993121539	975.5069044697	4.1147665246	-28.4113578307	-3.6933256509	1040.7099186598	23.9134527199	0.0000000000	0.0000000000	0.0106666667	0.0100000000	640	360	0.0000000000	0.0000000000	10.4099117608	36.3078718722	0.9995672605	0.0042162550	-0.0291121088	-0.0035478933	0.9997298177	0.0229718112	
#timeindex 202
-4.6638705487	-1.1629033986	25.5993934588	0.0267327453	-0.0266004941	0.9992886340	975.5699211362	5.2259446108	-25.9591159826	-4.8338151896	1040.6078851234	27.8297021522	0.0000000000	0.0000000000	0.0106666667	0.0100000000	640	360	0.0000000000	-0.0000000000	10.4099117608	36.3078718722	0.9996318315	0.0053548397	-0.0265993837	-0.0046434737	0.9996318019	0.0267338502	
#timeindex 203
-4.6901781368	-1.1676321858	25.7346375716	0.0255487840	-0.0281956168	0.9992758712	975.5831644659	8.0274495204	-24.7165226175	-7.8130549473	1040.5420733154	29.5597446719	0.0000000000	0.0000000000	0.0106666667	0.0100000000	640	360	0.0000000000	0.0000000000	10.4099117608	36.3078718722	0.9996454014	0.0082254423	-0.0253261424	-0.0075053998	0.9995685816	0.0283957687	
#timeindex 204
-4.7171640293	-1.1716703681	25.8432653104	0.0282521101	-0.0264672065	0.9992503717	975.4795982989	11.5560549839	-27.2739458336	-11.5472288874	1040.5534908453	27.8876830655	0.0000000000	0.0000000000	0.0106666667	0.0100000000	640	360	-0.0000000000	-0.0000000000	10.4099117608	36.3078718722	0.9995392809	0.0118410789	-0.0279466431	-0.0110925329	0.9995795495	0.0267895480	
#timeindex 205
-4.7396956058	-1.1817973844	25.9676435799	0.0340390945	-0.0241729661	0.9991281238	975.2513846269	15.6077235965	-32.8480284476	-15.7867534031	1040.5538168500	25.7130575376	0.0000000000	0.0000000000	0.0106666667	0.0100000000	640	360	-0.0000000000	0.0000000000	10.4099117608	36.3078718722	0.9993054384	0.0159926798	-0.0336582075	-0.0151651174	0.9995798627	0.0247005528	
#timeindex 206
-4.7604571961	-1.1809661485	26.0823590540	0.0405288518	-0.0272372871	0.9988070596	974.9857640693	17.7034278141	-39.0794796707	-17.7257489838	1040.4336113409	29.0916979093	0.0000000000	0.0000000000	0.0106666667	0.0100000000	640	360	-0.0000000000	-0.0000000000	10.4099117608	36.3078718722	0.9990332665	0.0181400734	-0.0400433541	-0.0170277610	0.9994643905	0.0279461523	
#timeindex 207
-4.7877609721	-1.1775421534	26.2308079401	0.0475411053	-0.0346594197	0.9982677837	974.6910385018	17.8225121858	-45.7995059919	-17.2845391367	1040.1920233802	36.9381628567	0.0000000000	0.0000000000	0.0106666667	0.0100000000	640	360	-0.0000000000	-0.0000000000	10.4099117608	36.3078718722	0.9987312717	0.0182620949	-0.0469291263	-0.0166039247	0.9992323156	0.0354836465	
#timeindex 208
-4.8178454664	-1.1736620067	26.3647202210	0.0513684759	-0.0408067885	0.9978457224	974.3768296563	24.7400281755	-49.1485712933	-24.1932116619	1039.7892679185	43.7675165305	0.0000000000	0.0000000000	0.0106666667	0.0100000000	640	360	-0.0000000000	-0.0000000000	10.4099117608	36.3078718722	0.9984093130	0.0253502277	-0.0503607945	-0.0232405540	0.9988454195	0.0420440802	
#timeindex 209
-4.8467213854	-1.1796455276	26.4876509778	0.0507873498	-0.0437913556	0.9977489475	974.2324511132	31.3763543253	-48.2132016419	-31.1406965865	1039.4538917107	47.2069136424	0.0000000000	0.0000000000	0.0106666667	0.0100000000	640	360	-0.0000000000	0.0000000000	10.4099117608	36.3078718722	0.9982613735	0.0321502353	-0.0494023545	-0.0299144674	0.9985232494	0.0453480440	
#timeindex 210
-4.8540876261	-1.1794983968	26.6189191732	0.0524116282	-0.0371693767	0.9979335943	974.1179505233	32.1849125593	-49.9620565754	-32.2787701033	1039.7051950830	40.4205021011	0.0000000000	0.0000000000	0.0106666667	0.0100000000	640	360	0.0000000000	-0.0000000000	10.4099117608	36.3078718722	0.9981440488	0.0329787362	-0.0511943440	-0.0310077269	0.9987646572	0.0388288614	
#timeindex 211
-4.8917068815	-1.1968061540	26.7403422984	0.0565354510	-0.0247363297	0.9980941122	973.9441447553	30.1512090416	-54.4202601569	-30.6640925042	1040.1755631249	27.5161767106	0.0000000000	0.0000000000	0.0106666667	0.0100000000	640	360	-0.0000000000	0.0000000000	10.4099117608	36.3078718722	0.9979659562	0.0308948725	-0.0557625068	-0.0294566306	0.9992165035	0.0264326705	
#timeindex 212
-4.9101439107	-1.2033133920	26.8451864365	0.0610170498	-0.0188636998	0.9979584563	973.7670435578	27.0452957223	-59.0267234854	-27.6017271190	1040.4060715683	21.3536782778	0.0000000000	0.0000000000	0.0106666667	0.0100000000	640	360	0.0000000000	-0.0000000000	10.4099117608	36.3078718722	0.9977844869	0.0277123535	-0.0604825861	-0.0265148521	0.9994379352	0.0205128331	
#timeindex 213
-4.9225958035	-1.2045777262	26.9727577621	0.0666991693	-0.0202091247	0.9975684498	973.5114276376	23.1836668043	-64.6210111189	-23.2761178495	1040.4847504245	22.6348214923	0.0000000000	0.0000000000	0.0106666667	0.0100000000	640	360	-0.0000000000	0.0000000000	10.4099117608	36.3078718722	0.9975225663	0.0237554795	-0.0662148538	-0.0223595727	0.9995135159	0.0217435287	
#timeindex 214
-4.9368035675	-1.2054350139	27.0968763350	0.0718901973	-0.0194006711	0.9972238532	973.2197427660	20.3519741926	-69.7637919148	-20.2048103903	1040.5688263558	21.7005051947	0.0000000000	0.0000000000	0.0106666667	0.0100000000	640	360	-0.0000000000	0.0000000000	10.4099117608	36.3078718722	0.9972236872	0.0208539448	-0.0714844785	-0.0194092043	0.9995942812	0.0208460030	
#timeindex 215
-4.9519865039	-1.2123370076	27.2137236056	0.0739791461	-0.0155212486	0.9971389957	973.0849855394	19.3607546119	-71.8931799547	-19.4021242578	1040.6608867167	17.6381717976	0.0000000000	0.0000000000	0.0106666667	0.0100000000	640	360	-0.0000000000	0.0000000000	10.4099117608	36.3078718722	0.9970856063	0.0198382773	-0.0736663868	-0.0186381256	0.9996827165	0.0169436324	
#timeindex 216
-4.9690687857	-1.2110815171	27.3412942523	0.0725661186	-0.0123223463	0.9972874802	973.1402057414	21.4362032130	-70.5442158281	-21.8760392891	1040.6609745334	14.4500401538	0.0000000000	0.0000000000	0.0106666667	0.0100000000	640	360	0.0000000000	0.0000000000	10.4099117608	36.3078718722	0.9971421884	0.0219649157	-0.0722841512	-0.0210146251	0.9996828008	0.0138810400	
#timeindex 217
-4.9905582902	-1.2133149128	27.4691941614	0.0701309611	-0.0101208281	0.9974864496	973.2768304272	22.7848245746	-68.1976564704	-23.5064928104	1040.6540984061	12.2115084471	0.0000000000	0.0000000000	0.0106666667	0.0100000000	640	360	-0.0000000000	0.0000000000	10.4099117608	36.3078718722	0.9972821829	0.0233468001	-0.0698797152	-0.0225808761	0.9996761955	0.0117306551	
#timeindex 218
-5.0056959198	-1.2120686416	27.5933084538	0.0680761317	-0.0109403174	0.9976201430	973.3731498543	24.6282673536	-66.1514687318	-25.4356667041	1040.5973302021	13.1473156073	0.0000000000	0.0000000000	0.0106666667	0.0100000000	640	360	-0.0000000000	0.0000000000	10.4099117608	36.3078718722	0.9973808780	0.0252357104	-0.0677830593	-0.0244340848	0.9996216626	0.0126296129	
#timeindex 219
-5.0215918631	-1.2135440398	27.7291566543	0.0666975827	-0.0152997385	0.9976559279	973.4040999862	27.2319251779	-64.6586236059	-27.9240869863	1040.4639407860	17.8230738715	0.0000000000	0.0000000000	0.0106666667	0.0100000000	640	360	0.0000000000	0.0000000000	10.4099117608	36.3078718722	0.9974125915	0.0279035860	-0.0662533940	-0.0268245184	0.9994935257	0.0171212536	
#timeindex 220
-5.0357353676	-1.2138383983	27.8601075816	0.0657680529	-0.0183770795	0.9976656986	973.4386882049	28.3516808335	-63.6487213165	-28.9235433085	1040.3759374796	21.0705013723	0.0000000000	0.0000000000	0.0106666667	0.0100000000	640	360	-0.0000000000	-0.0000000000	10.4099117608	36.3078718722	0.9974480328	0.0290509599	-0.0652185830	-0.0277846191	0.9994089877	0.0202408069	
#timeindex 221
-5.0506425417	-1.2110046742	28.0018221352	0.0629783244	-0.0188912671	0.9978360841	973.5961830481	28.9747398261	-60.8998688972	-29.6123362484	1040.3464260961	21.5650625597	0.0000000000	0.0000000000	0.0106666667	0.0100000000	640	360	0.0000000000	-0.0000000000	10.4099117608	36.3078718722	0.9976094122	0.0296893863	-0.0624019316	-0.0284462894	0.9993806384	0.0207158937	
#timeindex 222
-5.0635553703	-1.2134190028	28.1285142233	0.0619639397	-0.0180290126	0.9979155400	973.6683983228	28.5408164754	-59.9427153862	-29.2273240666	1040.3766530698	20.6109666779	0.0000000000	0.0000000000	0.0106666667	0.0100000000	640	360	0.0000000000	-0.0000000000	10.4099117608	36.3078718722	0.9976834086	0.0292447604	-0.0614211704	-0.0280764379	0.9994096751	0.0197993673	
#timeindex 223
-5.0720483072	-1.2193072837	28.2566573450	0.0643117154	-0.0200884786	0.9977276463	973.5071502512	29.2867836497	-62.1608392694	-29.8362848308	1040.3121791264	22.8690782680	0.0000000000	0.0000000000	0.0106666667	0.0100000000	640	360	0.0000000000	-0.0000000000	10.4099117608	36.3078718722	0.9975181834	0.0300091265	-0.0636940031	-0.0286614195	0.9993477400	0.0219685611	
#timeindex 224
-5.0856904132	-1.2314364364	28.3741320789	0.0653901048	-0.0233965347	0.9975854532	973.4608618511	28.7367997107	-63.1348082437	-29.0029628070	1040.2547058510	26.2983606989	0.0000000000	0.0000000000	0.0106666667	0.0100000000	640	360	0.0000000000	0.0000000000	10.4099117608	36.3078718722	0.9974707534	0.0294455775	-0.0646919945	-0.0278609113	0.9992925298	0.0252628085	
#timeindex 225
-5.0932665698	-1.2531025125	28.4997107142	0.0604847279	-0.0236752640	0.9978883102	973.9363620856	21.4663358644	-58.5236384495	-21.3711392340	1040.4474633829	25.9803583532	0.0000000000	0.0000000000	0.0106666667	0.0100000000	640	360	0.0000000000	0.0000000000	10.4099117608	36.3078718722	0.9979579816	0.0219957916	-0.0599670927	-0.0205296065	0.9994776971	0.0249573281	
#timeindex 226
-5.1038001177	-1.2662051140	28.6068984908	0.0524280924	-0.0188524933	0.9984467330	974.5079297833	13.3977252453	-50.9181006441	-13.2447806420	1040.7080508340	20.3459427718	0.0000000000	0.0000000000	0.0106666667	0.0100000000	640	360	0.0000000000	0.0000000000	10.4099117608	36.3078718722	0.9985436467	0.0137281730	-0.0521739684	-0.0127232401	0.9997280234	0.0195447793	
#timeindex 227
-5.1142622079	-1.2768766420	28.7291816567	0.0463625355	-0.0134223328	0.9988344989	974.8400891272	9.4147586765	-45.1222802500	-9.3846821381	1040.8489549856	14.4225281686	0.0000000000	0.0000000000	0.0106666667	0.0100000000	640	360	0.0000000000	0.0000000000	10.4099117608	36.3078718722	0.9988839985	0.0096469687	-0.0462351972	-0.0090151409	0.9998633792	0.0138546114	
#timeindex 228
-5.1272234122	-1.2846277294	28.8406762095	0.0454942787	-0.0126008164	0.9988851235	974.8979509498	6.9343161646	-44.3143060279	-6.7927347467	1040.8822480708	13.4399805778	0.0000000000	0.0000000000	0.0106666667	0.0100000000	640	360	-0.0000000000	0.0000000000	10.4099117608	36.3078718722	0.9989432875	0.0071053474	-0.0454072947	-0.0065252568	0.9998953613	0.0129107536	
#timeindex 229
-5.1395025729	-1.2892195835	28.9526605989	0.0459848146	-0.0140308560	0.9988435973	974.8913089403	3.9144749402	-44.8271108150	-3.4997178602	1040.8803289603	14.7824703791	0.0000000000	0.0000000000	0.0106666667	0.0100000000	640	360	-0.0000000000	0.0000000000	10.4099117608	36.3078718722	0.9989364817	0.0040110234	-0.0459327475	-0.0033619092	0.9998935177	0.0142003801	
#timeindex 230
-5.1534194985	-1.2926594443	29.0641438650	0.0455406182	-0.0134113325	0.9988724585	974.9151234905	2.3455367782	-44.4168624758	-1.8636829621	1040.8945467328	14.0605099433	0.0000000000	0.0000000000	0.0106666667	0.0100000000	640	360	0.0000000000	-0.0000000000	10.4099117608	36.3078718722	0.9989608836	0.0024033882	-0.0455123806	-0.0017902966	0.9999071756	0.0135068483	
#timeindex 231
-5.1704698060	-1.2975005258	29.1780459448	0.0432123082	-0.0137910136	0.9989707225	975.0170914835	1.6017780180	-42.1540371451	-1.0867012757	1040.8907749911	14.4167364854	0.0000000000	0.0000000000	0.0106666667	0.0100000000	640	360	-0.0000000000	0.0000000000	10.4099117608	36.3078718722	0.9990653666	0.0016412850	-0.0431937439	-0.0010439102	0.9999035524	0.0138490477	
#timeindex 232
-5.1876026575	-1.2996188589	29.3031822773	0.0417608737	-0.0145396924	0.9990218350	975.0768309984	-0.8247797822	-40.7719341442	1.5112366842	1040.8807643190	15.0857318825	0.0000000000	0.0000000000	0.0106666667	0.0100000000	640	360	0.0000000000	-0.0000000000	10.4099117608	36.3078718722	0.9991265795	-0.0008451225	-0.0417775521	0.0014517286	0.9998939359	0.0144917001	
#timeindex 233
-5.1999579755	-1.3037008331	29.4202179578	0.0410324699	-0.0160474992	0.9990289356	975.1034064550	-2.1190674970	-40.0838308815	2.9442719895	1040.8546739693	16.5984219373	0.0000000000	0.0000000000	0.0106666667	0.0100000000	640	360	0.0000000000	0.0000000000	10.4099117608	36.3078718722	0.9991538104	-0.0021713332	-0.0410724771	0.0028283352	0.9998688729	0.0159448248	
#timeindex 234
-5.2252209216	-1.3101067208	29.5435679528	0.0410904940	-0.0203365266	0.9989484456	975.1048370406	0.2767971698	-40.1040819464	0.5750097336	1040.7758483327	21.1643937618	0.0000000000	0.0000000000	0.0106666667	0.0100000000	640	360	-0.0000000000	-0.0000000000	10.4099117608	36.3078718722	0.9991552763	0.0002836242	-0.0410932277	0.0005523675	0.9997931512	0.0203310021	
#timeindex 235
-5.2416258574	-1.3210969000	29.6507142202	0.0428015897	-0.0238857204	0.9987980258	975.0344363854	1.9275231114	-41.7371506297	-0.9901699923	1040.6921456192	24.9300277195	0.0000000000	0.0000000000	0.0106666667	0.0100000000	640	360	0.0000000000	0.0000000000	10.4099117608	36.3078718722	0.9990831393	0.0019750644	-0.0427665751	-0.0009511800	0.9997127445	0.0239483564	
#timeindex 236
-5.2655139377	-1.3253070692	29.7639032952	0.0486914648	-0.0237703210	0.9985309775	974.7648848258	4.7647201616	-47.4191309266	-3.8725895641	1040.6846296086	24.9626404575	0.0000000000	0.0000000000	0.0106666667	0.0100000000	640	360	0.0000000000	0.0000000000	10.4099117608	36.3078718722	0.9988069394	0.0048822394	-0.0485886984	-0.0037200984	0.9997055244	0.0239796850	
#timeindex 237
-5.2872361718	-1.3302306889	29.8857538038	0.0571848709	-0.0228666355	0.9981017020	974.3039426450	8.7119336032	-55.6218193221	-7.9184126801	1040.6774933036	24.2957268698	0.0000000000	0.0000000000	0.0106666667	0.0100000000	640	360	0.0000000000	0.0000000000	10.4099117608	36.3078718722	0.9983346283	0.0089268088	-0.0569937017	-0.0076066088	0.9996986691	0.0233390325	
#timeindex 238
-5.3100560436	-1.3292501540	30.0130636650	0.0682066020	-0.0289618686	0.9972507556	973.5718302288	14.7970419125	-66.1573590843	-13.6963418532	1040.4347861569	31.1527630645	0.0000000000	0.0000000000	0.0106666667	0.0100000000	640	360	0.0000000000	-0.0000000000	10.4099117608	36.3078718722	0.9975844587	0.0151620030	-0.0677890950	-0.0131570201	0.9994655191	0.0299260587	
#timeindex 239
-5.3326784954	-1.3367291621	30.1562442055	0.0790652139	-0.0403936872	0.9960507226	972.7431069750	19.1232306024	-76.4395650783	-17.0240339004	1039.9415308494	43.5249739396	0.0000000000	0.0000000000	0.0106666667	0.0100000000	640	360	0.0000000000	0.0000000000	10.4099117608	36.3078718722	0.9967352954	0.0195948949	-0.0783249061	-0.0163536774	0.9989916867	0.0418110883	
#timeindex 240
-5.3497276363	-1.3454494420	30.2658334888	0.0831698052	-0.0488672276	0.9953365147	972.4394511707	18.5438467165	-80.3461061985	-15.4998147254	1039.5593217356	52.3335552794	0.0000000000	0.0000000000	0.0106666667	0.0100000000	640	360	0.0000000000	0.0000000000	10.4099117608	36.3078718722	0.9964241501	0.0190012208	-0.0823277999	-0.0148894775	0.9986245279	0.0502728135	
#timeindex 241
-5.3594794964	-1.3494542941	30.3491677818	0.0810181632	-0.0502729509	0.9954439651	972.6737788852	13.5900384260	-78.4785827487	-10.2216232524	1039.5737960778	53.3335691528	0.0000000000	0.0000000000	0.0106666667	0.0100000000	640	360	0.0000000000	-0.0000000000	10.4099117608	36.3078718722	0.9966642574	0.0139252295	-0.0804142150	-0.0098191257	0.9986384323	0.0512334498	
#timeindex 242
-5.3774660548	-1.3519531326	30.4629200975	0.0791813627	-0.0458069212	0.9958072292	972.8596449765	6.7949276311	-77.0441260583	-3.4531027715	1039.8732014719	48.1085191411	0.0000000000	0.0000000000	0.0106666667	0.0100000000	640	360	0.0000000000	-0.0000000000	10.4099117608	36.3078718722	0.9968547078	0.0069625209	-0.0789443782	-0.0033171297	0.9989260480	0.0462141469	
#timeindex 243
-5.3933986061	-1.3560087870	30.5645512910	0.0797530250	-0.0390734132	0.9960485547	972.8205247101	2.8052383932	-77.7831251995	0.2614384497	1040.1919116603	40.7841542573	0.0000000000	0.0000000000	0.0106666667	0.0100000000	640	360	0.0000000000	-0.0000000000	10.4099117608	36.3078718722	0.9968146226	0.0028744281	-0.0797016044	0.0002511438	0.9992322083	0.0391781940	
#timeindex 244
-5.4126005650	-1.3626593293	30.6712068703	0.0838553126	-0.0369375727	0.9957931021	972.4900431087	4.9633750660	-81.7088623582	-2.0526587810	1040.2673056270	38.7601355467	0.0000000000	0.0000000000	0.0106666667	0.0100000000	640	360	0.0000000000	0.0000000000	10.4099117608	36.3078718722	0.9964759899	0.0050857941	-0.0837241677	-0.0019718311	0.9993046334	0.0372338752	
#timeindex 245
-5.4309867779	-1.3670541964	30.7945703745	0.0863213360	-0.0388251064	0.9955105414	972.2743448191	8.1436586522	-83.9889067419	-5.1693011107	1040.1700203243	41.0150681658	0.0000000000	0.0000000000	0.0106666667	0.0100000000	640	360	0.0000000000	0.0000000000	10.4099117608	36.3078718722	0.9962549715	0.0083445176	-0.0860604482	-0.0049657492	0.9992111789	0.0394000152	
#timeindex 246
-5.4522136718	-1.3715343930	30.9049970633	0.0845406636	-0.0379204112	0.9956982066	972.4201539211	8.6061684573	-82.2364599071	-5.8140865281	1040.2019500889	40.1089528810	0.0000000000	0.0000000000	0.0106666667	0.0100000000	640	360	0.0000000000	0.0000000000	10.4099117608	36.3078718722	0.9964043769	0.0088184350	-0.0842647782	-0.0055851449	0.9992418514	0.0385295801	
#timeindex 247
-5.4681058593	-1.3735082553	31.0192180921	0.0802998208	-0.0339450354	0.9961925885	972.7678470262	7.0616598511	-78.1710047117	-4.6733393985	1040.3639863440	35.8268682629	0.0000000000	0.0000000000	0.0106666667	0.0100000000	640	360	0.0000000000	-0.0000000000	10.4099117608	36.3078718722	0.9967606457	0.0072358319	-0.0800990507	-0.0044893170	0.9993975072	0.0344161114	
#timeindex 248
-5.4849742429	-1.3757783067	31.1311597843	0.0752415072	-0.0310355478	0.9966822515	973.1578528947	5.3957925562	-73.2975852095	-3.3099306293	1040.4737926760	32.6490395849	0.0000000000	0.0000000000	0.0106666667	0.0100000000	640	360	-0.0000000000	0.0000000000	10.4099117608	36.3078718722	0.9971602709	0.0055288769	-0.0751054309	-0.0031795953	0.9995029896	0.0313634163	
#timeindex 249
-5.4999830953	-1.3780913507	31.2414572715	0.0732137712	-0.0287827493	0.9969008461	973.3076039912	4.2703353393	-71.3577569322	-2.3501103860	1040.5499141054	30.2155904881	0.0000000000	0.0000000000	0.0106666667	0.0100000000	640	360	-0.0000000000	-0.0000000000	10.4099117608	36.3078718722	0.9973137155	0.0043756609	-0.0731177578	-0.0022575699	0.9995761136	0.0290257893	
#timeindex 250
-5.5177457949	-1.3784475574	31.3671608704	0.0738279849	-0.0282965721	0.9968694662	973.2592932392	5.6408822124	-71.9193005862	-3.8273638028	1040.5569377830	29.8201138512	0.0000000000	0.0000000000	0.0106666667	0.0100000000	640	360	0.0000000000	-0.0000000000	10.4099117608	36.3078718722	0.9972642132	0.0057800116	-0.0736931517	-0.0036766535	0.9995828607	0.0286458853	
#timeindex 251
-5.5323778984	-1.3795677662	31.4816866457	0.0763506825	-0.0287864914	0.9966653958	973.0755044629	5.2820720178	-74.3909910866	-3.3312029578	1040.5445181309	30.3090340779	0.0000000000	0.0000000000	0.0106666667	0.0100000000	640	360	0.0000000000	0.0000000000	10.4099117608	36.3078718722	0.9970758913	0.0054123515	-0.0762258051	-0.0032000300	0.9995709301	0.0291155533	
#timeindex 252
-5.5455902835	-1.3810173808	31.5971236582	0.0771861059	-0.0299054685	0.9965680950	973.0175160132	1.5970695735	-75.3141429324	0.7047638913	1040.5241789526	31.1699373604	0.0000000000	0.0000000000	0.0106666667	0.0100000000	640	360	-0.0000000000	0.0000000000	10.4099117608	36.3078718722	0.9970164726	0.0016364604	-0.0771717260	0.0006770124	0.9995513919	0.0299425567	
#timeindex 253
-5.5590085756	-1.3812797269	31.7101813784	0.0742753953	-0.0299777445	0.9967870888	973.2333927058	1.7553687906	-72.4675046363	0.4508622817	1040.5216350285	31.2594375021	0.0000000000	0.0000000000	0.0106666667	0.0100000000	640	360	-0.0000000000	0.0000000000	10.4099117608	36.3078718722	0.9972376738	0.0017986640	-0.0742548769	0.0004331086	0.9995489481	0.0300285326	
#timeindex 254
-5.5738994461	-1.3794888066	31.8463169342	0.0697352295	-0.0323689011	0.9970402459	973.5522217928	3.7015252219	-67.9722544773	-1.5897412603	1040.4381945718	33.8890051646	0.0000000000	0.0000000000	0.0106666667	0.0100000000	640	360	0.0000000000	0.0000000000	10.4099117608	36.3078718722	0.9975643666	0.0037928214	-0.0696487538	-0.0015271419	0.9994687933	0.0325545556	
#timeindex 255
-5.5864457848	-1.3819134511	31.9362244922	0.0672946417	-0.0435804942	0.9967809046	973.7168755419	3.2200232472	-65.5967602908	-0.3743130150	1039.9964783829	45.4952031880	0.0000000000	0.0000000000	0.0106666667	0.0100000000	640	360	-0.0000000000	0.0000000000	10.4099117608	36.3078718722	0.9977330815	0.0032994434	-0.0672146693	-0.0003595737	0.9990444706	0.0437037357	
#timeindex 256
-5.5925904949	-1.3665422090	32.1062007622	0.0652885798	-0.0555734876	0.9963177148	973.8395342037	-0.2692642581	-63.8306066403	4.0699329861	1039.3823882240	57.7088846493	0.0000000000	0.0000000000	0.0106666667	0.0100000000	640	360	0.0000000000	0.0000000000	10.4099117608	36.3078718722	0.9978587655	-0.0002759055	-0.0654049544	0.0039096710	0.9984545615	0.0554364782	
#timeindex 257
-5.5973764247	-1.3726121237	32.2084161849	0.0609359036	-0.0631535280	0.9961417808	974.1001429502	-1.7312509083	-59.6973324373	5.8609797511	1038.9115328250	65.5065229700	0.0000000000	0.0000000000	0.0106666667	0.0100000000	640	360	0.0000000000	0.0000000000	10.4099117608	36.3078718722	0.9981258020	-0.0017739513	-0.0611697352	0.0056301916	0.9980022470	0.0629270684	
#timeindex 258
-5.6025791867	-1.3744516971	32.3295664694	0.0607795078	-0.0632371351	0.9961460315	974.0815740814	-5.4329815475	-59.7781479481	9.8050579495	1038.8914995619	65.3524417961	0.0000000000	0.0000000000	0.0106666667	0.0100000000	640	360	0.0000000000	0.0000000000	10.4099117608	36.3078718722	0.9981067751	-0.0055669831	-0.0612525440	0.0094189636	0.9979830026	0.0627790545	
#timeindex 259
-5.6110441524	-1.3787426346	32.4282595258	0.0628937585	-0.0551561340	0.9964949453	973.8864609080	-11.2958302765	-62.0920502469	15.6597282307	1039.3366805499	56.5390665600	0.0000000000	0.0000000000	0.0106666667	0.0100000000	640	360	-0.0000000000	0.0000000000	10.4099117608	36.3078718722	0.9979068496	-0.0115744359	-0.0636235175	0.0150430941	0.9984106536	0.0543127241	
#timeindex 260
-5.6109925390	-1.4095202594	32.5018734772	0.0638584018	-0.0467017760	0.9968656121	973.7940263493	-13.8063581586	-63.0272635152	17.8203400725	1039.7510383817	47.5693423955	0.0000000000	0.0000000000	0.0106666667	0.0100000000	640	360	0.0000000000	0.0000000000	10.4099117608	36.3078718722	0.9978121352	-0.0141468846	-0.0645817973	0.0171186274	0.9988086953	0.0456962014	
#timeindex 261
-5.6255873264	-1.4144800496	32.6006432048	0.0615586377	-0.0470208281	0.9969952737	973.9346637334	-13.9134941954	-60.7909753440	17.8454719508	1039.7338307196	47.9346332018	0.0000000000	0.0000000000	0.0106666667	0.0100000000	640	360	0.0000000000	0.0000000000	10.4099117608	36.3078718722	0.9979562413	-0.0142566631	-0.0622903522	0.0171427697	0.9987921652	0.0460471081	
#timeindex 262
-5.6385804887	-1.4242082954	32.7206007383	0.0562712164	-0.0493447989	0.9971953876	974.2066491071	-15.8245328194	-55.7570284536	19.7669018618	1039.5860190541	50.3270031918	0.0000000000	0.0000000000	0.0106666667	0.0100000000	640	360	-0.0000000000	0.0000000000	10.4099117608	36.3078718722	0.9982349351	-0.0162148365	-0.0571322457	0.0189885393	0.9986501739	0.0483452736	
#timeindex 263
-5.6560713719	-1.4285446388	32.8345148906	0.0541895558	-0.0473393889	0.9974078776	974.2920458656	-17.4005437706	-53.7595355718	21.2270751916	1039.6584181194	48.1914264623	0.0000000000	0.0000000000	0.0106666667	0.0100000000	640	360	0.0000000000	0.0000000000	10.4099117608	36.3078718722	0.9983224381	-0.0178297189	-0.0550854858	0.0203912153	0.9987197221	0.0462937896	
#timeindex 264
-5.6701705630	-1.4304718642	32.9451449924	0.0547294372	-0.0439240124	0.9975346459	974.2940919106	-15.9917370350	-54.1585084738	19.5532487905	1039.8465884791	44.7143328508	0.0000000000	0.0000000000	0.0106666667	0.0100000000	640	360	0.0000000000	-0.0000000000	10.4099117608	36.3078718722	0.9983245346	-0.0163861647	-0.0554942991	0.0187832993	0.9989004829	0.0429536137	
#timeindex 265
-5.6915010004	-1.4305719744	33.0659772467	0.0551829064	-0.0413887021	0.9976180743	974.2754635791	-15.8038477197	-54.5473802350	19.2254393607	1039.9625544516	42.0820210075	0.0000000000	0.0000000000	0.0106666667	0.0100000000	640	360	0.0000000000	-0.0000000000	10.4099117608	36.3078718722	0.9983054468	-0.0161936412	-0.0558927622	0.0184683980	0.9990118825	0.0404249546	
#timeindex 266
-5.7028825415	-1.4327317807	33.1744759913	0.0539898672	-0.0397047351	0.9977517869	974.3099266568	-17.4569899783	-53.4160794550	20.8411885101	1040.0036238407	40.2583647450	0.0000000000	0.0000000000	0.0106666667	0.0100000000	640	360	-0.0000000000	0.0000000000	10.4099117608	36.3078718722	0.9983407599	-0.0178875573	-0.0547335585	0.0200205237	0.9990513347	0.0386731085	
#timeindex 267
-5.7261818587	-1.4324018075	33.2931456026	0.0516725396	-0.0424307047	0.9977622883	974.4926277794	-13.9555961721	-51.0609142540	17.1636460226	1039.9471374287	43.3357736894	0.0000000000	0.0000000000	0.0106666667	0.0100000000	640	360	-0.0000000000	-0.0000000000	10.4099117608	36.3078718722	0.9985279672	-0.0142998035	-0.0523203044	0.0164877920	0.9989970725	0.0416293382	
#timeindex 268
-5.7560457822	-1.4351010552	33.4173925615	0.0488024000	-0.0456029005	0.9977668571	974.7182236164	-7.5143637560	-48.0184976108	10.3331902672	1039.8772869478	47.0221430934	0.0000000000	0.0000000000	0.0106666667	0.0100000000	640	360	0.0000000000	0.0000000000	10.4099117608	36.3078718722	0.9987591273	-0.0076997015	-0.0492028482	0.0099262996	0.9989299726	0.0451705492	
#timeindex 269
-5.7788803256	-1.4372116693	33.5318197656	0.0477746586	-0.0426209975	0.9979484118	974.8004928884	-3.3028189024	-46.8075600437	5.6437629634	1040.0392734728	44.1484568927	0.0000000000	0.0000000000	0.0106666667	0.0100000000	640	360	0.0000000000	0.0000000000	10.4099117608	36.3078718722	0.9988434257	-0.0033842812	-0.0479620435	0.0054215281	0.9990855805	0.0424100203	
#timeindex 270
-5.8029912664	-1.4400247206	33.6581233567	0.0505431718	-0.0353887453	0.9980946972	974.6737816527	-2.2255543079	-49.4360545781	4.2355134908	1040.3364137885	36.6719953561	0.0000000000	0.0000000000	0.0106666667	0.0100000000	640	360	-0.0000000000	0.0000000000	10.4099117608	36.3078718722	0.9987135892	-0.0022804464	-0.0506553684	0.0040687314	0.9993710203	0.0352279599	
#timeindex 271
-5.8260250242	-1.4430398749	33.7562943525	0.0548881455	-0.0346179554	0.9978922230	974.4549949821	-0.5745053616	-53.6189325088	2.5914370635	1040.3670452169	35.9489130970	0.0000000000	0.0000000000	0.0106666667	0.0100000000	640	360	-0.0000000000	0.0000000000	10.4099117608	36.3078718722	0.9984894063	-0.0005886752	-0.0549414148	0.0024893939	0.9994004456	0.0345333504	
#timeindex 272
-5.8455200024	-1.4485268200	33.8714565871	0.0587313587	-0.0381987753	0.9975427214	974.2334734007	-2.4679738427	-57.4535084751	4.9670005397	1040.2280885092	39.5408833263	0.0000000000	0.0000000000	0.0106666667	0.0100000000	640	360	0.0000000000	0.0000000000	10.4099117608	36.3078718722	0.9982624210	-0.0025288451	-0.0588705685	0.0047714146	0.9992669606	0.0379838794	
#timeindex 273
-5.8680105614	-1.4611956000	33.9770192631	0.0590268042	-0.0387623337	0.9975035428	974.2126463747	-3.1655351974	-57.7715869252	5.7567937096	1040.2033475634	40.0809645111	0.0000000000	0.0000000000	0.0106666667	0.0100000000	640	360	0.0000000000	0.0000000000	10.4099117608	36.3078718722	0.9982410802	-0.0032436114	-0.0591964922	0.0055301081	0.9992431939	0.0385026938	
#timeindex 274
-5.8994301089	-1.4670316005	34.1079871410	0.0563106525	-0.0404293990	0.9975943936	974.3779664614	-0.0917051804	-55.0038843179	2.4696091308	1040.1400546058	42.0142417235	0.0000000000	0.0000000000	0.0106666667	0.0100000000	640	360	0.0000000000	0.0000000000	10.4099117608	36.3078718722	0.9984104779	-0.0000939670	-0.0563605257	0.0023723632	0.9991823932	0.0403598442	
#timeindex 275
-5.9267823643	-1.4705320705	34.2229268095	0.0548094911	-0.0401001428	0.9976912840	974.4582053993	-0.6579360547	-53.5595955515	2.9911087968	1040.1536345161	41.6425088491	0.0000000000	0.0000000000	0.0106666667	0.0100000000	640	360	0.0000000000	0.0000000000	10.4099117608	36.3078718722	0.9984926959	-0.0006741637	-0.0548806143	0.0028733277	0.9991954384	0.0400027491	
#timeindex 276
-5.9384602797	-1.4764557167	34.3343288735	0.0549305660	-0.0323916633	0.9979646352	974.4327751323	-4.9585317068	-53.7962539280	7.1370553907	1040.4314747966	33.3771982813	0.0000000000	0.0000000000	0.0106666667	0.0100000000	640	360	-0.0000000000	0.0000000000	10.4099117608	36.3078718722	0.9984666384	-0.0050808312	-0.0551231098	0.0068560191	0.9994623381	0.0320629022	
#timeindex 277
-5.9569404276	-1.4837073003	34.4216451062	0.0538247234	-0.0249700630	0.9982381455	974.4892221902	-5.7161877414	-52.6871735659	7.4898332715	1040.6487322704	25.6270773530	0.0000000000	0.0000000000	0.0106666667	0.0100000000	640	360	-0.0000000000	0.0000000000	10.4099117608	36.3078718722	0.9985244777	-0.0058571745	-0.0539866745	0.0071949056	0.9996710406	0.0246179583	
#timeindex 278
-5.9778397838	-1.4957645047	34.5365789516	0.0517762618	-0.0229257660	0.9983955268	974.6113629468	-3.0003229437	-50.6117229771	4.4328762932	1040.7126517037	23.6675909995	0.0000000000	0.0000000000	0.0106666667	0.0100000000	640	360	-0.0000000000	-0.0000000000	10.4099117608	36.3078718722	0.9986496310	-0.0030743243	-0.0518600341	0.0042583226	0.9997324431	0.0227356308	
#timeindex 279
-6.0016202524	-1.5015053817	34.6453867136	0.0509597555	-0.0215781161	0.9984675699	974.6572984696	-1.6897584703	-49.7810454051	2.9454402275	1040.7472365154	22.3415026235	0.0000000000	0.0000000000	0.0106666667	0.0100000000	640	360	-0.0000000000	0.0000000000	10.4099117608	36.3078718722	0.9986966994	-0.0017314355	-0.0510088683	0.0028294574	0.9997656661	0.0214617598	
#timeindex 280
-6.0160722911	-1.5029568501	34.7723475692	0.0491704198	-0.0206236385	0.9985774559	974.7483243480	0.0824059496	-47.9953603533	0.9680535873	1040.7697641080	21.4473696051	0.0000000000	0.0000000000	0.0106666667	0.0100000000	640	360	-0.0000000000	0.0000000000	10.4099117608	36.3078718722	0.9987899704	0.0000844384	-0.0491791402	0.0009299345	0.9997873066	0.0206028352	
#timeindex 281
-6.0320129208	-1.5074593992	34.8677023913	0.0468738301	-0.0202004348	0.9986965437	974.8552876926	2.4662095772	-45.7049569907	-1.6423839749	1040.7754377177	21.1286414746	0.0000000000	0.0000000000	0.0106666667	0.0100000000	640	360	0.0000000000	0.0000000000	10.4099117608	36.3078718722	0.9988995720	0.0025270373	-0.0468322453	-0.0015777117	0.9997927568	0.0202966576	
#timeindex 282
-6.0448144247	-1.5072269936	34.9911361243	0.0464569232	-0.0203154659	0.9987136908	974.8716987563	3.6508528610	-45.2736066901	-2.9081624780	1040.7690504159	21.3062188020	0.0000000000	0.0000000000	0.0106666667	0.0100000000	640	360	-0.0000000000	0.0000000000	10.4099117608	36.3078718722	0.9989163878	0.0037408992	-0.0463902560	-0.0027936476	0.9997866210	0.0204672425	
#timeindex 283
-6.0588699405	-1.5080391684	35.0917978039	0.0471231266	-0.0212789330	0.9986624144	974.8386955702	4.5044041866	-45.9029975861	-3.7563865050	1040.7443820208	22.3528415341	0.0000000000	0.0000000000	0.0106666667	0.0100000000	640	360	0.0000000000	0.0000000000	10.4099117608	36.3078718722	0.9988825706	0.0046155029	-0.0470351705	-0.0036084710	0.9997629240	0.0214726523	
#timeindex 284
-6.0689130768	-1.5104536232	35.2010357028	0.0497287121	-0.0256332644	0.9984337689	974.7181780655	3.8945362943	-48.4475299807	-2.8230060836	1040.6408292774	26.8574710197	0.0000000000	0.0000000000	0.0106666667	0.0100000000	640	360	-0.0000000000	0.0000000000	10.4099117608	36.3078718722	0.9987590806	0.0039905929	-0.0496424624	-0.0027118444	0.9996634488	0.0257999027	
#timeindex 285
-6.0936821382	-1.5096069816	35.3288592497	0.0530569282	-0.0326357747	0.9980580487	974.5536157370	3.0930798295	-51.7062872055	-1.4929050430	1040.4314206381	34.1007163510	0.0000000000	0.0000000000	0.0106666667	0.0100000000	640	360	-0.0000000000	0.0000000000	10.4099117608	36.3078718722	0.9985904594	0.0031693690	-0.0529815951	-0.0014341188	0.9994622861	0.0327579303	
#timeindex 286
-6.1105786033	-1.5067669848	35.4691345689	0.0551535949	-0.0372435570	0.9977830418	974.4433921685	2.8413851305	-53.7574107930	-0.8884999529	1040.2645400808	38.8783473218	0.0000000000	0.0000000000	0.0106666667	0.0100000000	640	360	-0.0000000000	0.0000000000	10.4099117608	36.3078718722	0.9984775173	0.0029114664	-0.0550833086	-0.0008535134	0.9993019768	0.0373474322	
#timeindex 287
-6.1173377371	-1.5096904082	35.5690618002	0.0528127675	-0.0390482650	0.9978406910	974.5665711078	3.1681329762	-51.4569590829	-1.2287861599	1040.1917494905	40.7706150141	0.0000000000	0.0000000000	0.0106666667	0.0100000000	640	360	0.0000000000	0.0000000000	10.4099117608	36.3078718722	0.9986037343	0.0032462733	-0.0527261175	-0.0011804002	0.9992320525	0.0391651879	
#timeindex 288
-6.1367265869	-1.5127800265	35.7011693937	0.0465763066	-0.0449906537	0.9979010416	974.8680509888	4.0391729653	-45.3191512331	-2.1245404472	1039.9281516252	46.9846193700	0.0000000000	0.0000000000	0.0106666667	0.0100000000	640	360	0.0000000000	0.0000000000	10.4099117608	36.3078718722	0.9989126501	0.0041387970	-0.0464369239	-0.0020408823	0.9989788343	0.0451345030	
#timeindex 289
-6.1368070816	-1.5100644117	35.8224886867	0.0392524265	-0.0508640575	0.9979339130	975.1769698964	1.4372835853	-38.2840544486	0.5471662041	1039.6425722104	52.9683993447	0.0000000000	0.0000000000	0.0106666667	0.0100000000	640	360	0.0000000000	-0.0000000000	10.4099117608	36.3078718722	0.9992291883	0.0014727334	-0.0392283102	0.0005256204	0.9987045002	0.0508826593	
#timeindex 290
-6.1420587215	-1.5141261974	35.9346416327	0.0347861892	-0.0553152914	0.9978627859	975.3344324909	-0.9603500262	-34.0540709878	3.0314756409	1039.3968484202	57.5120015445	0.0000000000	0.0000000000	0.0106666667	0.0100000000	640	360	0.0000000000	0.0000000000	10.4099117608	36.3078718722	0.9993905346	-0.0009840365	-0.0348939964	0.0029121050	0.9984684523	0.0552473478	
#timeindex 291
-6.1518028889	-1.5204518945	36.0508426152	0.0356623476	-0.0543771007	0.9978834240	975.2824275650	-5.2228088474	-35.1392369870	7.5973591509	1039.4360702578	56.3698913695	0.0000000000	0.0000000000	0.0106666667	0.0100000000	640	360	0.0000000000	0.0000000000	10.4099117608	36.3078718722	0.9993372470	-0.0053516266	-0.0360059275	0.0072981975	0.9985061297	0.0541502106	
#timeindex 292
-6.1608570081	-1.5333333478	36.1772693695	0.0384252167	-0.0482378147	0.9980964963	975.1227777180	-11.1131545226	-38.0778596761	13.7907128874	1039.7117631233	49.7181509426	0.0000000000	0.0000000000	0.0106666667	0.0100000000	640	360	0.0000000000	0.0000000000	10.4099117608	36.3078718722	0.9991736595	-0.0113872545	-0.0390170297	0.0132476751	0.9987709666	0.0477603961	
#timeindex 293
-6.1648647306	-1.5458561986	36.2588492025	0.0399429318	-0.0391873783	0.9984332284	975.0469473520	-12.6757225935	-39.5048571924	15.1508847086	1040.1036920643	40.2167765855	0.0000000000	0.0000000000	0.0106666667	0.0100000000	640	360	0.0000000000	0.0000000000	10.4099117608	36.3078718722	0.9990959588	-0.0129883625	-0.0404792234	0.0145542874	0.9991474625	0.0386331580	
#timeindex 294
-6.1788891115	-1.5559027082	36.3662223259	0.0367894637	-0.0331297358	0.9987737261	975.1992294433	-10.4400801157	-36.2674074871	12.4040611687	1040.3601350026	34.0522750493	0.0000000000	0.0000000000	0.0106666667	0.0100000000	640	360	0.0000000000	0.0000000000	10.4099117608	36.3078718722	0.9992519969	-0.0106975791	-0.0371619237	0.0119156257	0.9993938075	0.0327113964	
#timeindex 295
-6.1914513244	-1.5603910189	36.4680728927	0.0306838010	-0.0328152120	0.9989903234	975.4024922296	-10.4668976567	-30.3031257645	12.2141151697	1040.3706306417	33.7993337351	0.0000000000	0.0000000000	0.0106666667	0.0100000000	640	360	0.0000000000	0.0000000000	10.4099117608	36.3078718722	0.9994602730	-0.0107250581	-0.0310505362	0.0117331592	0.9994038898	0.0324684152	
#timeindex 296
-6.2028297634	-1.5633841523	36.5858068122	0.0257881435	-0.0333429652	0.9991112142	975.5013774146	-13.3533096872	-25.6243830761	15.1422233266	1040.3148489666	34.3272015243	0.0000000000	0.0000000000	0.0106666667	0.0100000000	640	360	-0.0000000000	0.0000000000	10.4099117608	36.3078718722	0.9995615971	-0.0136826619	-0.0262563948	0.0145459670	0.9993503047	0.0329754971	
#timeindex 297
-6.2152648274	-1.5631315949	36.6921708886	0.0234776065	-0.0309267311	0.9992458853	975.5237118233	-15.6086146702	-23.4033340380	17.4086747766	1040.3600099480	31.7901937023	0.0000000000	0.0000000000	0.0106666667	0.0100000000	640	360	-0.0000000000	0.0000000000	10.4099117608	36.3078718722	0.9995844824	-0.0159935928	-0.0239805648	0.0167231723	0.9993936873	0.0305383892	
#timeindex 298
-6.2303158205	-1.5630611823	36.8185546703	0.0251651908	-0.0283677599	0.9992807330	975.4539816203	-17.3077796658	-25.0564907676	19.2065357490	1040.4084492248	29.0516167920	0.0000000000	0.0000000000	0.0106666667	0.0100000000	640	360	-0.0000000000	0.0000000000	10.4099117608	36.3078718722	0.9995130324	-0.0177346668	-0.0256744957	0.0184502388	0.9994402192	0.0279076494	
#timeindex 299
-6.2419415371	-1.5628664484	36.9185649021	0.0266526099	-0.0274988148	0.9992664577	975.3520550272	-20.4891180054	-26.5786008484	22.6186329546	1040.3679809722	28.0265995655	0.0000000000	0.0000000000	0.0106666667	0.0100000000	640	360	-0.0000000000	0.0000000000	10.4099117608	36.3078718722	0.9994085918	-0.0209944711	-0.0272341478	0.0217279776	0.9994013445	0.0269229944	
#timeindex 300
-6.2545320803	-1.5613254616	37.0358292602	0.0278080831	-0.0277468987	0.9992281122	975.2611021855	-23.0614343894	-27.7814692439	25.4021153733	1040.2995833657	28.1804552120	0.0000000000	0.0000000000	0.0106666667	0.0100000000	640	360	-0.0000000000	-0.0000000000	10.4099117608	36.3078718722	0.9993153957	-0.0236302323	-0.0284666843	0.0244018547	0.9993356402	0.0270707916	
#timeindex 301
-6.2707278577	-1.5591428346	37.1412766352	0.0276413778	-0.0306795885	0.9991469947	975.2346204614	-24.2217828612	-27.7235912907	26.7217812545	1040.1803290198	31.2002916484	0.0000000000	0.0000000000	0.0106666667	0.0100000000	640	360	-0.0000000000	-0.0000000000	10.4099117608	36.3078718722	0.9992882608	-0.0248192002	-0.0284073788	0.0256695560	0.9992210817	0.0299717158	
#timeindex 302
-6.3011073106	-1.5521437243	37.2812993259	0.0267096781	-0.0339309607	0.9990672064	975.2988691726	-22.5729974495	-26.8408793127	25.0268568789	1040.1130964553	34.6559041024	0.0000000000	0.0000000000	0.0106666667	0.0100000000	640	360	-0.0000000000	-0.0000000000	10.4099117608	36.3078718722	0.9993540941	-0.0231297484	-0.0275028952	0.0240413727	0.9991564966	0.0332912564	
#timeindex 303
-6.3203667173	-1.5535555863	37.3832431172	0.0283465746	-0.0333981287	0.9990400576	975.3594958636	-17.6847811708	-28.2658728708	19.8526208648	1040.2394107872	34.2121376427	0.0000000000	0.0000000000	0.0106666667	0.0100000000	640	360	-0.0000000000	-0.0000000000	10.4099117608	36.3078718722	0.9994162162	-0.0181209668	-0.0289630355	0.0190708829	0.9992778370	0.0328649641	
#timeindex 304
-6.3426756068	-1.5496585109	37.5179303655	0.0311943295	-0.0349637288	0.9989016225	975.3667516864	-12.0007632646	-30.8794205127	13.9383910193	1040.2759398765	35.9766430054	0.0000000000	0.0000000000	0.0106666667	0.0100000000	640	360	0.0000000000	0.0000000000	10.4099117608	36.3078718722	0.9994236509	-0.0122967557	-0.0316410449	0.0133895381	0.9993129277	0.0345599884	
#timeindex 305
-6.3625923185	-1.5463661626	37.6295806644	0.0336407018	-0.0392434272	0.9986632348	975.3138390832	-9.7947793817	-33.2390555673	11.8251738869	1040.1368092529	40.4748313398	0.0000000000	0.0000000000	0.0106666667	0.0100000000	640	360	0.0000000000	0.0000000000	10.4099117608	36.3078718722	0.9993694333	-0.0100363624	-0.0340588791	0.0113595333	0.9991792756	0.0388810513	
#timeindex 306
-6.3824535915	-1.5494684090	37.7413036592	0.0365834239	-0.0472509401	0.9982129040	975.1858694517	-11.5606988343	-36.2867398593	14.1382627492	1039.7553193554	48.6992204329	0.0000000000	0.0000000000	0.0106666667	0.0100000000	640	360	0.0000000000	0.0000000000	10.4099117608	36.3078718722	0.9992383074	-0.0118458373	-0.0371817329	0.0135815395	0.9988128077	0.0467815881	
#timeindex 307
-6.4137846731	-1.5465921735	37.8975247018	0.0394622572	-0.0548465146	0.9977146837	975.1043253926	-9.1123179893	-39.0688813121	11.9832377906	1039.3788264981	56.6629130174	0.0000000000	0.0000000000	0.0106666667	0.0100000000	640	360	0.0000000000	0.0000000000	10.4099117608	36.3078718722	0.9991547521	-0.0093370684	-0.0400324944	0.0115113731	0.9984511400	0.0544316939	
#timeindex 308
-6.4216692721	-1.5560842245	38.0074110406	0.0392442017	-0.0589870437	0.9974870532	975.1453023488	-5.6459850124	-38.6990876598	8.4421778421	1039.1610974833	61.1193241354	0.0000000000	0.0000000000	0.0106666667	0.0100000000	640	360	0.0000000000	0.0000000000	10.4099117608	36.3078718722	0.9991967397	-0.0057852402	-0.0396535800	0.0081097497	0.9982419845	0.0587126246	
#timeindex 309
-6.4465084532	-1.5611988147	38.1230853434	0.0365114198	-0.0561874611	0.9977524169	975.2675690696	-2.6125787802	-35.8357416370	4.9282412077	1039.3429205085	58.3492476359	0.0000000000	0.0000000000	0.0106666667	0.0100000000	640	360	0.0000000000	0.0000000000	10.4099117608	36.3078718722	0.9993220220	-0.0026770166	-0.0367196110	0.0047341815	0.9984166479	0.0560516256	
#timeindex 310
